,index,_id,rt,stimulus,response,response_correct,stimURL,chunk_id,rep,block_number,composite_duration,chunk_duration,participant_condition,compatible_trial,validity,talls_name,wides_name,part_type,part_a,part_b,compatible_condition,trial_type,trial_index,time_elapsed,internal_node_id,datatype,experimentName,iterationName,workerID,gameID,compatibility,composite_id,trial_bin,flagRT
0,0,61678fd99075de37027a1f43,2155.4000000953674,https://tower-4-block-unique-silhouettes-composite-silhouette-png.s3.amazonaws.com/tower_4_block_unique_silhouette_composites_silhouette_talls_100_118.png,m,1,https://tower-4-block-unique-silhouettes-composite-silhouette-png.s3.amazonaws.com/tower_4_block_unique_silhouette_composites_silhouette_talls_100_118.png,wides_025_023,0,0,500,500,A,False,valid,talls_100_118,wides_013_010,tall,tall_100,tall_118,none,tower-zipping,21,429898,0.0-21.0,trial_end,block_construction_zipping,pilot_0,61678071de3b5fb66dd56f43,6077-f23a7e61-5a66-4da1-9d16-9a0ae3df945e,novel,talls_100_118.png,2.0,False
1,1,61678fdc9075de37027a1f44,993.8000001907349,https://tower-4-block-unique-silhouettes-composite-silhouette-png.s3.amazonaws.com/tower_4_block_unique_silhouette_composites_silhouette_talls_100_118.png,z,1,https://tower-4-block-unique-silhouettes-composite-silhouette-png.s3.amazonaws.com/tower_4_block_unique_silhouette_composites_silhouette_talls_100_118.png,wides_025_023,0,0,500,500,A,False,invalid,talls_100_118,wides_013_010,tall,tall_102,tall_127,none,tower-zipping,22,432698,0.0-22.0,trial_end,block_construction_zipping,pilot_0,61678071de3b5fb66dd56f43,6077-f23a7e61-5a66-4da1-9d16-9a0ae3df945e,novel,talls_100_118.png,2.0,False
2,2,61678fe09075de37027a1f45,1558.2999999523163,https://tower-4-block-unique-silhouettes-composite-silhouette-png.s3.amazonaws.com/tower_4_block_unique_silhouette_composites_silhouette_talls_122_127.png,m,1,https://tower-4-block-unique-silhouettes-composite-silhouette-png.s3.amazonaws.com/tower_4_block_unique_silhouette_composites_silhouette_talls_100_118.png,wides_025_023,0,0,500,500,A,False,valid,talls_122_127,wides_025_023,wide,wide_025,wide_023,B,tower-zipping,23,436072,0.0-23.0,trial_end,block_construction_zipping,pilot_0,61678071de3b5fb66dd56f43,6077-f23a7e61-5a66-4da1-9d16-9a0ae3df945e,incompatible,talls_122_127.png,2.0,False
3,3,61678fe29075de37027a1f46,989.6000001430511,https://tower-4-block-unique-silhouettes-composite-silhouette-png.s3.amazonaws.com/tower_4_block_unique_silhouette_composites_silhouette_talls_100_118.png,z,1,https://tower-4-block-unique-silhouettes-composite-silhouette-png.s3.amazonaws.com/tower_4_block_unique_silhouette_composites_silhouette_talls_100_118.png,wides_025_023,0,0,500,500,A,False,invalid,talls_100_118,wides_013_010,wide,wide_024,wide_023,none,tower-zipping,24,438927,0.0-24.0,trial_end,block_construction_zipping,pilot_0,61678071de3b5fb66dd56f43,6077-f23a7e61-5a66-4da1-9d16-9a0ae3df945e,novel,talls_100_118.png,2.0,False
4,4,61678fe59075de37027a1f47,983.6000001430511,https://tower-4-block-unique-silhouettes-composite-silhouette-png.s3.amazonaws.com/tower_4_block_unique_silhouette_composites_silhouette_talls_122_127.png,m,0,https://tower-4-block-unique-silhouettes-composite-silhouette-png.s3.amazonaws.com/tower_4_block_unique_silhouette_composites_silhouette_talls_100_118.png,wides_025_023,0,0,500,500,A,False,invalid,talls_122_127,wides_025_023,wide,wide_013,wide_010,B,tower-zipping,25,441608,0.0-25.0,trial_end,block_construction_zipping,pilot_0,61678071de3b5fb66dd56f43,6077-f23a7e61-5a66-4da1-9d16-9a0ae3df945e,incompatible,talls_122_127.png,2.0,False
5,5,61678fe99075de37027a1f48,1883.1000001430511,https://tower-4-block-unique-silhouettes-composite-silhouette-png.s3.amazonaws.com/tower_4_block_unique_silhouette_composites_silhouette_talls_122_127.png,m,0,https://tower-4-block-unique-silhouettes-composite-silhouette-png.s3.amazonaws.com/tower_4_block_unique_silhouette_composites_silhouette_talls_100_118.png,wides_025_023,0,0,500,500,A,True,invalid,talls_122_127,wides_025_023,tall,tall_100,tall_118,A,tower-zipping,26,445360,0.0-26.0,trial_end,block_construction_zipping,pilot_0,61678071de3b5fb66dd56f43,6077-f23a7e61-5a66-4da1-9d16-9a0ae3df945e,compatible,talls_122_127.png,2.0,False
6,6,61678fec9075de37027a1f49,1760.0,https://tower-4-block-unique-silhouettes-composite-silhouette-png.s3.amazonaws.com/tower_4_block_unique_silhouette_composites_silhouette_talls_100_118.png,m,1,https://tower-4-block-unique-silhouettes-composite-silhouette-png.s3.amazonaws.com/tower_4_block_unique_silhouette_composites_silhouette_talls_100_118.png,wides_025_023,0,0,500,500,A,False,valid,talls_100_118,wides_013_010,wide,wide_013,wide_010,none,tower-zipping,27,448928,0.0-27.0,trial_end,block_construction_zipping,pilot_0,61678071de3b5fb66dd56f43,6077-f23a7e61-5a66-4da1-9d16-9a0ae3df945e,novel,talls_100_118.png,2.0,False
7,7,61678ff09075de37027a1f4a,1883.3999998569489,https://tower-4-block-unique-silhouettes-composite-silhouette-png.s3.amazonaws.com/tower_4_block_unique_silhouette_composites_silhouette_talls_102_126.png,z,1,https://tower-4-block-unique-silhouettes-composite-silhouette-png.s3.amazonaws.com/tower_4_block_unique_silhouette_composites_silhouette_talls_100_118.png,wides_025_023,0,0,500,500,A,False,invalid,talls_102_126,wides_024_011,tall,tall_100,tall_118,B,tower-zipping,28,452685,0.0-28.0,trial_end,block_construction_zipping,pilot_0,61678071de3b5fb66dd56f43,6077-f23a7e61-5a66-4da1-9d16-9a0ae3df945e,incompatible,talls_102_126.png,2.0,False
8,8,61678ff49075de37027a1f4b,1508.6000001430511,https://tower-4-block-unique-silhouettes-composite-silhouette-png.s3.amazonaws.com/tower_4_block_unique_silhouette_composites_silhouette_talls_102_126.png,m,1,https://tower-4-block-unique-silhouettes-composite-silhouette-png.s3.amazonaws.com/tower_4_block_unique_silhouette_composites_silhouette_talls_100_118.png,wides_025_023,0,0,500,500,A,False,valid,talls_102_126,wides_024_011,tall,tall_102,tall_126,B,tower-zipping,29,456056,0.0-29.0,trial_end,block_construction_zipping,pilot_0,61678071de3b5fb66dd56f43,6077-f23a7e61-5a66-4da1-9d16-9a0ae3df945e,incompatible,talls_102_126.png,2.0,False
9,9,61678ff79075de37027a1f4c,1309.8999998569489,https://tower-4-block-unique-silhouettes-composite-silhouette-png.s3.amazonaws.com/tower_4_block_unique_silhouette_composites_silhouette_talls_102_126.png,z,1,https://tower-4-block-unique-silhouettes-composite-silhouette-png.s3.amazonaws.com/tower_4_block_unique_silhouette_composites_silhouette_talls_100_118.png,wides_025_023,0,0,500,500,A,True,invalid,talls_102_126,wides_024_011,wide,wide_013,wide_010,A,tower-zipping,30,459178,0.0-30.0,trial_end,block_construction_zipping,pilot_0,61678071de3b5fb66dd56f43,6077-f23a7e61-5a66-4da1-9d16-9a0ae3df945e,compatible,talls_102_126.png,2.0,False
10,10,61678ffa9075de37027a1f4d,1378.2999999523163,https://tower-4-block-unique-silhouettes-composite-silhouette-png.s3.amazonaws.com/tower_4_block_unique_silhouette_composites_silhouette_talls_122_127.png,m,1,https://tower-4-block-unique-silhouettes-composite-silhouette-png.s3.amazonaws.com/tower_4_block_unique_silhouette_composites_silhouette_talls_100_118.png,wides_025_023,0,0,500,500,A,True,valid,talls_122_127,wides_025_023,tall,tall_122,tall_127,A,tower-zipping,31,462347,0.0-31.0,trial_end,block_construction_zipping,pilot_0,61678071de3b5fb66dd56f43,6077-f23a7e61-5a66-4da1-9d16-9a0ae3df945e,compatible,talls_122_127.png,3.0,False
11,11,61678ffd9075de37027a1f4e,1550.9000000953674,https://tower-4-block-unique-silhouettes-composite-silhouette-png.s3.amazonaws.com/tower_4_block_unique_silhouette_composites_silhouette_talls_102_126.png,m,1,https://tower-4-block-unique-silhouettes-composite-silhouette-png.s3.amazonaws.com/tower_4_block_unique_silhouette_composites_silhouette_talls_100_118.png,wides_025_023,0,0,500,500,A,True,valid,talls_102_126,wides_024_011,wide,wide_024,wide_011,A,tower-zipping,32,465684,0.0-32.0,trial_end,block_construction_zipping,pilot_0,61678071de3b5fb66dd56f43,6077-f23a7e61-5a66-4da1-9d16-9a0ae3df945e,compatible,talls_102_126.png,3.0,False
12,12,616790009075de37027a1f4f,1364.7999999523163,https://tower-4-block-unique-silhouettes-composite-silhouette-png.s3.amazonaws.com/tower_4_block_unique_silhouette_composites_silhouette_talls_102_126.png,m,1,https://tower-4-block-unique-silhouettes-composite-silhouette-png.s3.amazonaws.com/tower_4_block_unique_silhouette_composites_silhouette_talls_100_118.png,wides_025_023,1,0,500,500,A,False,valid,talls_102_126,wides_024_011,tall,tall_102,tall_126,B,tower-zipping,33,468829,0.0-33.0,trial_end,block_construction_zipping,pilot_0,61678071de3b5fb66dd56f43,6077-f23a7e61-5a66-4da1-9d16-9a0ae3df945e,incompatible,talls_102_126.png,3.0,False
13,13,616790039075de37027a1f50,1273.5,https://tower-4-block-unique-silhouettes-composite-silhouette-png.s3.amazonaws.com/tower_4_block_unique_silhouette_composites_silhouette_talls_100_118.png,m,1,https://tower-4-block-unique-silhouettes-composite-silhouette-png.s3.amazonaws.com/tower_4_block_unique_silhouette_composites_silhouette_talls_100_118.png,wides_025_023,1,0,500,500,A,False,valid,talls_100_118,wides_013_010,wide,wide_013,wide_010,none,tower-zipping,34,471887,0.0-34.0,trial_end,block_construction_zipping,pilot_0,61678071de3b5fb66dd56f43,6077-f23a7e61-5a66-4da1-9d16-9a0ae3df945e,novel,talls_100_118.png,3.0,False
14,14,616790079075de37027a1f51,1749.5,https://tower-4-block-unique-silhouettes-composite-silhouette-png.s3.amazonaws.com/tower_4_block_unique_silhouette_composites_silhouette_talls_102_126.png,m,1,https://tower-4-block-unique-silhouettes-composite-silhouette-png.s3.amazonaws.com/tower_4_block_unique_silhouette_composites_silhouette_talls_100_118.png,wides_025_023,1,0,500,500,A,True,valid,talls_102_126,wides_024_011,wide,wide_024,wide_011,A,tower-zipping,35,475417,0.0-35.0,trial_end,block_construction_zipping,pilot_0,61678071de3b5fb66dd56f43,6077-f23a7e61-5a66-4da1-9d16-9a0ae3df945e,compatible,talls_102_126.png,3.0,False
15,15,6167900a9075de37027a1f52,1483.8000001907349,https://tower-4-block-unique-silhouettes-composite-silhouette-png.s3.amazonaws.com/tower_4_block_unique_silhouette_composites_silhouette_talls_122_127.png,z,1,https://tower-4-block-unique-silhouettes-composite-silhouette-png.s3.amazonaws.com/tower_4_block_unique_silhouette_composites_silhouette_talls_100_118.png,wides_025_023,1,0,500,500,A,False,invalid,talls_122_127,wides_025_023,wide,wide_010,wide_013,B,tower-zipping,36,478749,0.0-36.0,trial_end,block_construction_zipping,pilot_0,61678071de3b5fb66dd56f43,6077-f23a7e61-5a66-4da1-9d16-9a0ae3df945e,incompatible,talls_122_127.png,3.0,False
16,16,6167900e9075de37027a1f53,1693.3000001907349,https://tower-4-block-unique-silhouettes-composite-silhouette-png.s3.amazonaws.com/tower_4_block_unique_silhouette_composites_silhouette_talls_102_126.png,z,1,https://tower-4-block-unique-silhouettes-composite-silhouette-png.s3.amazonaws.com/tower_4_block_unique_silhouette_composites_silhouette_talls_100_118.png,wides_025_023,1,0,500,500,A,False,invalid,talls_102_126,wides_024_011,tall,tall_118,tall_100,B,tower-zipping,37,482302,0.0-37.0,trial_end,block_construction_zipping,pilot_0,61678071de3b5fb66dd56f43,6077-f23a7e61-5a66-4da1-9d16-9a0ae3df945e,incompatible,talls_102_126.png,3.0,False
17,17,616790119075de37027a1f54,1505.5999999046326,https://tower-4-block-unique-silhouettes-composite-silhouette-png.s3.amazonaws.com/tower_4_block_unique_silhouette_composites_silhouette_talls_100_118.png,m,0,https://tower-4-block-unique-silhouettes-composite-silhouette-png.s3.amazonaws.com/tower_4_block_unique_silhouette_composites_silhouette_talls_100_118.png,wides_025_023,1,0,500,500,A,False,invalid,talls_100_118,wides_013_010,tall,tall_122,tall_126,none,tower-zipping,38,485663,0.0-38.0,trial_end,block_construction_zipping,pilot_0,61678071de3b5fb66dd56f43,6077-f23a7e61-5a66-4da1-9d16-9a0ae3df945e,novel,talls_100_118.png,3.0,False
18,18,616790149075de37027a1f55,1378.0999999046326,https://tower-4-block-unique-silhouettes-composite-silhouette-png.s3.amazonaws.com/tower_4_block_unique_silhouette_composites_silhouette_talls_122_127.png,z,1,https://tower-4-block-unique-silhouettes-composite-silhouette-png.s3.amazonaws.com/tower_4_block_unique_silhouette_composites_silhouette_talls_100_118.png,wides_025_023,1,0,500,500,A,True,invalid,talls_122_127,wides_025_023,tall,tall_118,tall_100,A,tower-zipping,39,488840,0.0-39.0,trial_end,block_construction_zipping,pilot_0,61678071de3b5fb66dd56f43,6077-f23a7e61-5a66-4da1-9d16-9a0ae3df945e,compatible,talls_122_127.png,3.0,False
19,19,616790179075de37027a1f56,1303.0,https://tower-4-block-unique-silhouettes-composite-silhouette-png.s3.amazonaws.com/tower_4_block_unique_silhouette_composites_silhouette_talls_122_127.png,m,1,https://tower-4-block-unique-silhouettes-composite-silhouette-png.s3.amazonaws.com/tower_4_block_unique_silhouette_composites_silhouette_talls_100_118.png,wides_025_023,1,0,500,500,A,False,valid,talls_122_127,wides_025_023,wide,wide_025,wide_023,B,tower-zipping,40,492001,0.0-40.0,trial_end,block_construction_zipping,pilot_0,61678071de3b5fb66dd56f43,6077-f23a7e61-5a66-4da1-9d16-9a0ae3df945e,incompatible,talls_122_127.png,3.0,False
20,20,6167901b9075de37027a1f57,1686.3999998569489,https://tower-4-block-unique-silhouettes-composite-silhouette-png.s3.amazonaws.com/tower_4_block_unique_silhouette_composites_silhouette_talls_122_127.png,m,1,https://tower-4-block-unique-silhouettes-composite-silhouette-png.s3.amazonaws.com/tower_4_block_unique_silhouette_composites_silhouette_talls_100_118.png,wides_025_023,1,0,500,500,A,True,valid,talls_122_127,wides_025_023,tall,tall_122,tall_127,A,tower-zipping,41,495542,0.0-41.0,trial_end,block_construction_zipping,pilot_0,61678071de3b5fb66dd56f43,6077-f23a7e61-5a66-4da1-9d16-9a0ae3df945e,compatible,talls_122_127.png,3.0,False
21,21,6167901e9075de37027a1f58,1311.5999999046326,https://tower-4-block-unique-silhouettes-composite-silhouette-png.s3.amazonaws.com/tower_4_block_unique_silhouette_composites_silhouette_talls_100_118.png,m,1,https://tower-4-block-unique-silhouettes-composite-silhouette-png.s3.amazonaws.com/tower_4_block_unique_silhouette_composites_silhouette_talls_100_118.png,wides_025_023,1,0,500,500,A,False,valid,talls_100_118,wides_013_010,tall,tall_100,tall_118,none,tower-zipping,42,498717,0.0-42.0,trial_end,block_construction_zipping,pilot_0,61678071de3b5fb66dd56f43,6077-f23a7e61-5a66-4da1-9d16-9a0ae3df945e,novel,talls_100_118.png,4.0,False
22,22,616790229075de37027a1f59,1509.2000000476837,https://tower-4-block-unique-silhouettes-composite-silhouette-png.s3.amazonaws.com/tower_4_block_unique_silhouette_composites_silhouette_talls_102_126.png,z,1,https://tower-4-block-unique-silhouettes-composite-silhouette-png.s3.amazonaws.com/tower_4_block_unique_silhouette_composites_silhouette_talls_100_118.png,wides_025_023,1,0,500,500,A,True,invalid,talls_102_126,wides_024_011,wide,wide_010,wide_013,A,tower-zipping,43,502083,0.0-43.0,trial_end,block_construction_zipping,pilot_0,61678071de3b5fb66dd56f43,6077-f23a7e61-5a66-4da1-9d16-9a0ae3df945e,compatible,talls_102_126.png,4.0,False
23,23,616790259075de37027a1f5a,1772.5999999046326,https://tower-4-block-unique-silhouettes-composite-silhouette-png.s3.amazonaws.com/tower_4_block_unique_silhouette_composites_silhouette_talls_100_118.png,z,1,https://tower-4-block-unique-silhouettes-composite-silhouette-png.s3.amazonaws.com/tower_4_block_unique_silhouette_composites_silhouette_talls_100_118.png,wides_025_023,1,0,500,500,A,False,invalid,talls_100_118,wides_013_010,wide,wide_025,wide_011,none,tower-zipping,44,505652,0.0-44.0,trial_end,block_construction_zipping,pilot_0,61678071de3b5fb66dd56f43,6077-f23a7e61-5a66-4da1-9d16-9a0ae3df945e,novel,talls_100_118.png,4.0,False
24,24,616790289075de37027a1f5b,1130.5,https://tower-4-block-unique-silhouettes-composite-silhouette-png.s3.amazonaws.com/tower_4_block_unique_silhouette_composites_silhouette_talls_100_118.png,m,1,https://tower-4-block-unique-silhouettes-composite-silhouette-png.s3.amazonaws.com/tower_4_block_unique_silhouette_composites_silhouette_talls_100_118.png,wides_025_023,2,0,500,500,A,False,valid,talls_100_118,wides_013_010,tall,tall_100,tall_118,none,tower-zipping,45,508651,0.0-45.0,trial_end,block_construction_zipping,pilot_0,61678071de3b5fb66dd56f43,6077-f23a7e61-5a66-4da1-9d16-9a0ae3df945e,novel,talls_100_118.png,4.0,False
25,25,6167902b9075de37027a1f5c,1581.6000001430511,https://tower-4-block-unique-silhouettes-composite-silhouette-png.s3.amazonaws.com/tower_4_block_unique_silhouette_composites_silhouette_talls_122_127.png,z,1,https://tower-4-block-unique-silhouettes-composite-silhouette-png.s3.amazonaws.com/tower_4_block_unique_silhouette_composites_silhouette_talls_100_118.png,wides_025_023,2,0,500,500,A,True,invalid,talls_122_127,wides_025_023,tall,tall_100,tall_126,A,tower-zipping,46,512032,0.0-46.0,trial_end,block_construction_zipping,pilot_0,61678071de3b5fb66dd56f43,6077-f23a7e61-5a66-4da1-9d16-9a0ae3df945e,compatible,talls_122_127.png,4.0,False
26,26,6167902f9075de37027a1f5d,1311.4000000953674,https://tower-4-block-unique-silhouettes-composite-silhouette-png.s3.amazonaws.com/tower_4_block_unique_silhouette_composites_silhouette_talls_100_118.png,z,1,https://tower-4-block-unique-silhouettes-composite-silhouette-png.s3.amazonaws.com/tower_4_block_unique_silhouette_composites_silhouette_talls_100_118.png,wides_025_023,2,0,500,500,A,False,invalid,talls_100_118,wides_013_010,wide,wide_023,wide_025,none,tower-zipping,47,515215,0.0-47.0,trial_end,block_construction_zipping,pilot_0,61678071de3b5fb66dd56f43,6077-f23a7e61-5a66-4da1-9d16-9a0ae3df945e,novel,talls_100_118.png,4.0,False
27,27,616790329075de37027a1f5e,1132.0999999046326,https://tower-4-block-unique-silhouettes-composite-silhouette-png.s3.amazonaws.com/tower_4_block_unique_silhouette_composites_silhouette_talls_100_118.png,m,1,https://tower-4-block-unique-silhouettes-composite-silhouette-png.s3.amazonaws.com/tower_4_block_unique_silhouette_composites_silhouette_talls_100_118.png,wides_025_023,2,0,500,500,A,False,valid,talls_100_118,wides_013_010,wide,wide_013,wide_010,none,tower-zipping,48,518230,0.0-48.0,trial_end,block_construction_zipping,pilot_0,61678071de3b5fb66dd56f43,6077-f23a7e61-5a66-4da1-9d16-9a0ae3df945e,novel,talls_100_118.png,4.0,False
28,28,616790359075de37027a1f5f,1388.7000000476837,https://tower-4-block-unique-silhouettes-composite-silhouette-png.s3.amazonaws.com/tower_4_block_unique_silhouette_composites_silhouette_talls_102_126.png,z,1,https://tower-4-block-unique-silhouettes-composite-silhouette-png.s3.amazonaws.com/tower_4_block_unique_silhouette_composites_silhouette_talls_100_118.png,wides_025_023,2,0,500,500,A,False,invalid,talls_102_126,wides_024_011,tall,tall_100,tall_127,B,tower-zipping,49,521418,0.0-49.0,trial_end,block_construction_zipping,pilot_0,61678071de3b5fb66dd56f43,6077-f23a7e61-5a66-4da1-9d16-9a0ae3df945e,incompatible,talls_102_126.png,4.0,False
29,29,616790389075de37027a1f60,1121.5,https://tower-4-block-unique-silhouettes-composite-silhouette-png.s3.amazonaws.com/tower_4_block_unique_silhouette_composites_silhouette_talls_122_127.png,m,1,https://tower-4-block-unique-silhouettes-composite-silhouette-png.s3.amazonaws.com/tower_4_block_unique_silhouette_composites_silhouette_talls_100_118.png,wides_025_023,2,0,500,500,A,False,valid,talls_122_127,wides_025_023,wide,wide_025,wide_023,B,tower-zipping,50,524402,0.0-50.0,trial_end,block_construction_zipping,pilot_0,61678071de3b5fb66dd56f43,6077-f23a7e61-5a66-4da1-9d16-9a0ae3df945e,incompatible,talls_122_127.png,4.0,False
30,30,6167903b9075de37027a1f61,1214.4000000953674,https://tower-4-block-unique-silhouettes-composite-silhouette-png.s3.amazonaws.com/tower_4_block_unique_silhouette_composites_silhouette_talls_102_126.png,m,1,https://tower-4-block-unique-silhouettes-composite-silhouette-png.s3.amazonaws.com/tower_4_block_unique_silhouette_composites_silhouette_talls_100_118.png,wides_025_023,2,0,500,500,A,True,valid,talls_102_126,wides_024_011,wide,wide_024,wide_011,A,tower-zipping,51,527532,0.0-51.0,trial_end,block_construction_zipping,pilot_0,61678071de3b5fb66dd56f43,6077-f23a7e61-5a66-4da1-9d16-9a0ae3df945e,compatible,talls_102_126.png,4.0,False
31,31,6167903f9075de37027a1f62,2115.399999856949,https://tower-4-block-unique-silhouettes-composite-silhouette-png.s3.amazonaws.com/tower_4_block_unique_silhouette_composites_silhouette_talls_102_126.png,m,0,https://tower-4-block-unique-silhouettes-composite-silhouette-png.s3.amazonaws.com/tower_4_block_unique_silhouette_composites_silhouette_talls_100_118.png,wides_025_023,2,0,500,500,A,True,invalid,talls_102_126,wides_024_011,wide,wide_013,wide_023,A,tower-zipping,52,531536,0.0-52.0,trial_end,block_construction_zipping,pilot_0,61678071de3b5fb66dd56f43,6077-f23a7e61-5a66-4da1-9d16-9a0ae3df945e,compatible,talls_102_126.png,4.0,False
32,32,616790429075de37027a1f63,1513.6000001430511,https://tower-4-block-unique-silhouettes-composite-silhouette-png.s3.amazonaws.com/tower_4_block_unique_silhouette_composites_silhouette_talls_102_126.png,m,1,https://tower-4-block-unique-silhouettes-composite-silhouette-png.s3.amazonaws.com/tower_4_block_unique_silhouette_composites_silhouette_talls_100_118.png,wides_025_023,2,0,500,500,A,False,valid,talls_102_126,wides_024_011,tall,tall_102,tall_126,B,tower-zipping,53,534922,0.0-53.0,trial_end,block_construction_zipping,pilot_0,61678071de3b5fb66dd56f43,6077-f23a7e61-5a66-4da1-9d16-9a0ae3df945e,incompatible,talls_102_126.png,4.0,False
33,33,616790469075de37027a1f64,1331.6000001430511,https://tower-4-block-unique-silhouettes-composite-silhouette-png.s3.amazonaws.com/tower_4_block_unique_silhouette_composites_silhouette_talls_100_118.png,z,1,https://tower-4-block-unique-silhouettes-composite-silhouette-png.s3.amazonaws.com/tower_4_block_unique_silhouette_composites_silhouette_talls_100_118.png,wides_025_023,2,0,500,500,A,False,invalid,talls_100_118,wides_013_010,tall,tall_127,tall_122,none,tower-zipping,54,538120,0.0-54.0,trial_end,block_construction_zipping,pilot_0,61678071de3b5fb66dd56f43,6077-f23a7e61-5a66-4da1-9d16-9a0ae3df945e,novel,talls_100_118.png,4.0,False
34,34,616790499075de37027a1f65,1915.7000000476837,https://tower-4-block-unique-silhouettes-composite-silhouette-png.s3.amazonaws.com/tower_4_block_unique_silhouette_composites_silhouette_talls_122_127.png,z,1,https://tower-4-block-unique-silhouettes-composite-silhouette-png.s3.amazonaws.com/tower_4_block_unique_silhouette_composites_silhouette_talls_100_118.png,wides_025_023,2,0,500,500,A,False,invalid,talls_122_127,wides_025_023,wide,wide_013,wide_011,B,tower-zipping,55,541933,0.0-55.0,trial_end,block_construction_zipping,pilot_0,61678071de3b5fb66dd56f43,6077-f23a7e61-5a66-4da1-9d16-9a0ae3df945e,incompatible,talls_122_127.png,5.0,False
35,35,6167904d9075de37027a1f66,1323.0,https://tower-4-block-unique-silhouettes-composite-silhouette-png.s3.amazonaws.com/tower_4_block_unique_silhouette_composites_silhouette_talls_122_127.png,m,1,https://tower-4-block-unique-silhouettes-composite-silhouette-png.s3.amazonaws.com/tower_4_block_unique_silhouette_composites_silhouette_talls_100_118.png,wides_025_023,2,0,500,500,A,True,valid,talls_122_127,wides_025_023,tall,tall_122,tall_127,A,tower-zipping,56,545142,0.0-56.0,trial_end,block_construction_zipping,pilot_0,61678071de3b5fb66dd56f43,6077-f23a7e61-5a66-4da1-9d16-9a0ae3df945e,compatible,talls_122_127.png,5.0,False
36,36,616790509075de37027a1f67,1785.0999999046326,https://tower-4-block-unique-silhouettes-composite-silhouette-png.s3.amazonaws.com/tower_4_block_unique_silhouette_composites_silhouette_talls_102_126.png,m,0,https://tower-4-block-unique-silhouettes-composite-silhouette-png.s3.amazonaws.com/tower_4_block_unique_silhouette_composites_silhouette_talls_100_118.png,wides_025_023,3,0,500,500,A,True,invalid,talls_102_126,wides_024_011,wide,wide_025,wide_010,A,tower-zipping,57,548733,0.0-57.0,trial_end,block_construction_zipping,pilot_0,61678071de3b5fb66dd56f43,6077-f23a7e61-5a66-4da1-9d16-9a0ae3df945e,compatible,talls_102_126.png,5.0,False
37,37,616790539075de37027a1f68,1153.8999998569489,https://tower-4-block-unique-silhouettes-composite-silhouette-png.s3.amazonaws.com/tower_4_block_unique_silhouette_composites_silhouette_talls_102_126.png,m,1,https://tower-4-block-unique-silhouettes-composite-silhouette-png.s3.amazonaws.com/tower_4_block_unique_silhouette_composites_silhouette_talls_100_118.png,wides_025_023,3,0,500,500,A,True,valid,talls_102_126,wides_024_011,wide,wide_024,wide_011,A,tower-zipping,58,551783,0.0-58.0,trial_end,block_construction_zipping,pilot_0,61678071de3b5fb66dd56f43,6077-f23a7e61-5a66-4da1-9d16-9a0ae3df945e,compatible,talls_102_126.png,5.0,False
38,38,616790569075de37027a1f69,1140.3999998569489,https://tower-4-block-unique-silhouettes-composite-silhouette-png.s3.amazonaws.com/tower_4_block_unique_silhouette_composites_silhouette_talls_100_118.png,m,1,https://tower-4-block-unique-silhouettes-composite-silhouette-png.s3.amazonaws.com/tower_4_block_unique_silhouette_composites_silhouette_talls_100_118.png,wides_025_023,3,0,500,500,A,False,valid,talls_100_118,wides_013_010,tall,tall_100,tall_118,none,tower-zipping,59,554832,0.0-59.0,trial_end,block_construction_zipping,pilot_0,61678071de3b5fb66dd56f43,6077-f23a7e61-5a66-4da1-9d16-9a0ae3df945e,novel,talls_100_118.png,5.0,False
39,39,6167905a9075de37027a1f6a,1607.1999998092651,https://tower-4-block-unique-silhouettes-composite-silhouette-png.s3.amazonaws.com/tower_4_block_unique_silhouette_composites_silhouette_talls_122_127.png,z,1,https://tower-4-block-unique-silhouettes-composite-silhouette-png.s3.amazonaws.com/tower_4_block_unique_silhouette_composites_silhouette_talls_100_118.png,wides_025_023,3,0,500,500,A,False,invalid,talls_122_127,wides_025_023,wide,wide_024,wide_010,B,tower-zipping,60,558298,0.0-60.0,trial_end,block_construction_zipping,pilot_0,61678071de3b5fb66dd56f43,6077-f23a7e61-5a66-4da1-9d16-9a0ae3df945e,incompatible,talls_122_127.png,5.0,False
40,40,6167905d9075de37027a1f6b,1142.2000000476837,https://tower-4-block-unique-silhouettes-composite-silhouette-png.s3.amazonaws.com/tower_4_block_unique_silhouette_composites_silhouette_talls_100_118.png,m,1,https://tower-4-block-unique-silhouettes-composite-silhouette-png.s3.amazonaws.com/tower_4_block_unique_silhouette_composites_silhouette_talls_100_118.png,wides_025_023,3,0,500,500,A,False,valid,talls_100_118,wides_013_010,wide,wide_013,wide_010,none,tower-zipping,61,561344,0.0-61.0,trial_end,block_construction_zipping,pilot_0,61678071de3b5fb66dd56f43,6077-f23a7e61-5a66-4da1-9d16-9a0ae3df945e,novel,talls_100_118.png,5.0,False
41,41,616790609075de37027a1f6c,1589.4000000953674,https://tower-4-block-unique-silhouettes-composite-silhouette-png.s3.amazonaws.com/tower_4_block_unique_silhouette_composites_silhouette_talls_122_127.png,z,1,https://tower-4-block-unique-silhouettes-composite-silhouette-png.s3.amazonaws.com/tower_4_block_unique_silhouette_composites_silhouette_talls_100_118.png,wides_025_023,3,0,500,500,A,True,invalid,talls_122_127,wides_025_023,tall,tall_102,tall_118,A,tower-zipping,62,564851,0.0-62.0,trial_end,block_construction_zipping,pilot_0,61678071de3b5fb66dd56f43,6077-f23a7e61-5a66-4da1-9d16-9a0ae3df945e,compatible,talls_122_127.png,5.0,False
42,42,616790649075de37027a1f6d,2190.2000000476837,https://tower-4-block-unique-silhouettes-composite-silhouette-png.s3.amazonaws.com/tower_4_block_unique_silhouette_composites_silhouette_talls_100_118.png,z,1,https://tower-4-block-unique-silhouettes-composite-silhouette-png.s3.amazonaws.com/tower_4_block_unique_silhouette_composites_silhouette_talls_100_118.png,wides_025_023,3,0,500,500,A,False,invalid,talls_100_118,wides_013_010,tall,tall_126,tall_122,none,tower-zipping,63,568888,0.0-63.0,trial_end,block_construction_zipping,pilot_0,61678071de3b5fb66dd56f43,6077-f23a7e61-5a66-4da1-9d16-9a0ae3df945e,novel,talls_100_118.png,5.0,False
43,43,616790679075de37027a1f6e,1201.0,https://tower-4-block-unique-silhouettes-composite-silhouette-png.s3.amazonaws.com/tower_4_block_unique_silhouette_composites_silhouette_talls_122_127.png,m,1,https://tower-4-block-unique-silhouettes-composite-silhouette-png.s3.amazonaws.com/tower_4_block_unique_silhouette_composites_silhouette_talls_100_118.png,wides_025_023,3,0,500,500,A,False,valid,talls_122_127,wides_025_023,wide,wide_025,wide_023,B,tower-zipping,64,571986,0.0-64.0,trial_end,block_construction_zipping,pilot_0,61678071de3b5fb66dd56f43,6077-f23a7e61-5a66-4da1-9d16-9a0ae3df945e,incompatible,talls_122_127.png,5.0,False
44,44,6167906b9075de37027a1f6f,1344.4000000953674,https://tower-4-block-unique-silhouettes-composite-silhouette-png.s3.amazonaws.com/tower_4_block_unique_silhouette_composites_silhouette_talls_122_127.png,m,1,https://tower-4-block-unique-silhouettes-composite-silhouette-png.s3.amazonaws.com/tower_4_block_unique_silhouette_composites_silhouette_talls_100_118.png,wides_025_023,3,0,500,500,A,True,valid,talls_122_127,wides_025_023,tall,tall_122,tall_127,A,tower-zipping,65,575090,0.0-65.0,trial_end,block_construction_zipping,pilot_0,61678071de3b5fb66dd56f43,6077-f23a7e61-5a66-4da1-9d16-9a0ae3df945e,compatible,talls_122_127.png,5.0,False
45,45,6167906e9075de37027a1f70,1393.6000001430511,https://tower-4-block-unique-silhouettes-composite-silhouette-png.s3.amazonaws.com/tower_4_block_unique_silhouette_composites_silhouette_talls_100_118.png,z,1,https://tower-4-block-unique-silhouettes-composite-silhouette-png.s3.amazonaws.com/tower_4_block_unique_silhouette_composites_silhouette_talls_100_118.png,wides_025_023,3,0,500,500,A,False,invalid,talls_100_118,wides_013_010,wide,wide_011,wide_025,none,tower-zipping,66,578424,0.0-66.0,trial_end,block_construction_zipping,pilot_0,61678071de3b5fb66dd56f43,6077-f23a7e61-5a66-4da1-9d16-9a0ae3df945e,novel,talls_100_118.png,6.0,False
46,46,616790719075de37027a1f71,1537.0999999046326,https://tower-4-block-unique-silhouettes-composite-silhouette-png.s3.amazonaws.com/tower_4_block_unique_silhouette_composites_silhouette_talls_102_126.png,m,1,https://tower-4-block-unique-silhouettes-composite-silhouette-png.s3.amazonaws.com/tower_4_block_unique_silhouette_composites_silhouette_talls_100_118.png,wides_025_023,3,0,500,500,A,False,valid,talls_102_126,wides_024_011,tall,tall_102,tall_126,B,tower-zipping,67,581852,0.0-67.0,trial_end,block_construction_zipping,pilot_0,61678071de3b5fb66dd56f43,6077-f23a7e61-5a66-4da1-9d16-9a0ae3df945e,incompatible,talls_102_126.png,6.0,False
47,47,616790749075de37027a1f72,1207.4000000953674,https://tower-4-block-unique-silhouettes-composite-silhouette-png.s3.amazonaws.com/tower_4_block_unique_silhouette_composites_silhouette_talls_102_126.png,z,1,https://tower-4-block-unique-silhouettes-composite-silhouette-png.s3.amazonaws.com/tower_4_block_unique_silhouette_composites_silhouette_talls_100_118.png,wides_025_023,3,0,500,500,A,False,invalid,talls_102_126,wides_024_011,tall,tall_122,tall_118,B,tower-zipping,68,584910,0.0-68.0,trial_end,block_construction_zipping,pilot_0,61678071de3b5fb66dd56f43,6077-f23a7e61-5a66-4da1-9d16-9a0ae3df945e,incompatible,talls_102_126.png,6.0,False
48,48,6167908c9075de37027a1f75,1550.0,https://tower-4-block-unique-silhouettes-composite-silhouette-png.s3.amazonaws.com/tower_4_block_unique_silhouette_composites_silhouette_talls_122_127.png,z,1,https://tower-4-block-unique-silhouettes-composite-silhouette-png.s3.amazonaws.com/tower_4_block_unique_silhouette_composites_silhouette_talls_100_118.png,wides_025_023,0,1,100,100,A,False,invalid,talls_122_127,wides_025_023,wide,wide_013,wide_010,B,tower-zipping,71,608414,0.0-71.0,trial_end,block_construction_zipping,pilot_0,61678071de3b5fb66dd56f43,6077-f23a7e61-5a66-4da1-9d16-9a0ae3df945e,incompatible,talls_122_127.png,6.0,False
49,49,6167908f9075de37027a1f76,1202.8999998569489,https://tower-4-block-unique-silhouettes-composite-silhouette-png.s3.amazonaws.com/tower_4_block_unique_silhouette_composites_silhouette_talls_122_127.png,m,1,https://tower-4-block-unique-silhouettes-composite-silhouette-png.s3.amazonaws.com/tower_4_block_unique_silhouette_composites_silhouette_talls_100_118.png,wides_025_023,0,1,100,100,A,False,valid,talls_122_127,wides_025_023,wide,wide_025,wide_023,B,tower-zipping,72,611059,0.0-72.0,trial_end,block_construction_zipping,pilot_0,61678071de3b5fb66dd56f43,6077-f23a7e61-5a66-4da1-9d16-9a0ae3df945e,incompatible,talls_122_127.png,6.0,False
50,50,616790919075de37027a1f77,977.5999999046326,https://tower-4-block-unique-silhouettes-composite-silhouette-png.s3.amazonaws.com/tower_4_block_unique_silhouette_composites_silhouette_talls_100_118.png,m,1,https://tower-4-block-unique-silhouettes-composite-silhouette-png.s3.amazonaws.com/tower_4_block_unique_silhouette_composites_silhouette_talls_100_118.png,wides_025_023,0,1,100,100,A,False,valid,talls_100_118,wides_013_010,wide,wide_013,wide_010,none,tower-zipping,73,613556,0.0-73.0,trial_end,block_construction_zipping,pilot_0,61678071de3b5fb66dd56f43,6077-f23a7e61-5a66-4da1-9d16-9a0ae3df945e,novel,talls_100_118.png,6.0,False
51,51,616790939075de37027a1f78,1003.7000000476837,https://tower-4-block-unique-silhouettes-composite-silhouette-png.s3.amazonaws.com/tower_4_block_unique_silhouette_composites_silhouette_talls_100_118.png,m,1,https://tower-4-block-unique-silhouettes-composite-silhouette-png.s3.amazonaws.com/tower_4_block_unique_silhouette_composites_silhouette_talls_100_118.png,wides_025_023,0,1,100,100,A,False,valid,talls_100_118,wides_013_010,tall,tall_100,tall_118,none,tower-zipping,74,616024,0.0-74.0,trial_end,block_construction_zipping,pilot_0,61678071de3b5fb66dd56f43,6077-f23a7e61-5a66-4da1-9d16-9a0ae3df945e,novel,talls_100_118.png,6.0,False
52,52,616790969075de37027a1f79,1025.6999998092651,https://tower-4-block-unique-silhouettes-composite-silhouette-png.s3.amazonaws.com/tower_4_block_unique_silhouette_composites_silhouette_talls_102_126.png,m,1,https://tower-4-block-unique-silhouettes-composite-silhouette-png.s3.amazonaws.com/tower_4_block_unique_silhouette_composites_silhouette_talls_100_118.png,wides_025_023,0,1,100,100,A,False,valid,talls_102_126,wides_024_011,tall,tall_102,tall_126,B,tower-zipping,75,618501,0.0-75.0,trial_end,block_construction_zipping,pilot_0,61678071de3b5fb66dd56f43,6077-f23a7e61-5a66-4da1-9d16-9a0ae3df945e,incompatible,talls_102_126.png,6.0,False
53,53,616790989075de37027a1f7a,957.0,https://tower-4-block-unique-silhouettes-composite-silhouette-png.s3.amazonaws.com/tower_4_block_unique_silhouette_composites_silhouette_talls_100_118.png,z,1,https://tower-4-block-unique-silhouettes-composite-silhouette-png.s3.amazonaws.com/tower_4_block_unique_silhouette_composites_silhouette_talls_100_118.png,wides_025_023,0,1,100,100,A,False,invalid,talls_100_118,wides_013_010,wide,wide_024,wide_023,none,tower-zipping,76,620971,0.0-76.0,trial_end,block_construction_zipping,pilot_0,61678071de3b5fb66dd56f43,6077-f23a7e61-5a66-4da1-9d16-9a0ae3df945e,novel,talls_100_118.png,6.0,False
54,54,6167909b9075de37027a1f7b,1014.1999998092651,https://tower-4-block-unique-silhouettes-composite-silhouette-png.s3.amazonaws.com/tower_4_block_unique_silhouette_composites_silhouette_talls_102_126.png,m,1,https://tower-4-block-unique-silhouettes-composite-silhouette-png.s3.amazonaws.com/tower_4_block_unique_silhouette_composites_silhouette_talls_100_118.png,wides_025_023,0,1,100,100,A,True,valid,talls_102_126,wides_024_011,wide,wide_024,wide_011,A,tower-zipping,77,623447,0.0-77.0,trial_end,block_construction_zipping,pilot_0,61678071de3b5fb66dd56f43,6077-f23a7e61-5a66-4da1-9d16-9a0ae3df945e,compatible,talls_102_126.png,6.0,False
55,55,6167909e9075de37027a1f7c,1151.5999999046326,https://tower-4-block-unique-silhouettes-composite-silhouette-png.s3.amazonaws.com/tower_4_block_unique_silhouette_composites_silhouette_talls_122_127.png,z,1,https://tower-4-block-unique-silhouettes-composite-silhouette-png.s3.amazonaws.com/tower_4_block_unique_silhouette_composites_silhouette_talls_100_118.png,wides_025_023,0,1,100,100,A,True,invalid,talls_122_127,wides_025_023,tall,tall_100,tall_118,A,tower-zipping,78,626110,0.0-78.0,trial_end,block_construction_zipping,pilot_0,61678071de3b5fb66dd56f43,6077-f23a7e61-5a66-4da1-9d16-9a0ae3df945e,compatible,talls_122_127.png,6.0,False
56,56,616790a09075de37027a1f7d,1240.2999999523163,https://tower-4-block-unique-silhouettes-composite-silhouette-png.s3.amazonaws.com/tower_4_block_unique_silhouette_composites_silhouette_talls_122_127.png,m,1,https://tower-4-block-unique-silhouettes-composite-silhouette-png.s3.amazonaws.com/tower_4_block_unique_silhouette_composites_silhouette_talls_100_118.png,wides_025_023,0,1,100,100,A,True,valid,talls_122_127,wides_025_023,tall,tall_122,tall_127,A,tower-zipping,79,628886,0.0-79.0,trial_end,block_construction_zipping,pilot_0,61678071de3b5fb66dd56f43,6077-f23a7e61-5a66-4da1-9d16-9a0ae3df945e,compatible,talls_122_127.png,7.0,False
57,57,616790a39075de37027a1f7e,950.3999998569489,https://tower-4-block-unique-silhouettes-composite-silhouette-png.s3.amazonaws.com/tower_4_block_unique_silhouette_composites_silhouette_talls_102_126.png,z,1,https://tower-4-block-unique-silhouettes-composite-silhouette-png.s3.amazonaws.com/tower_4_block_unique_silhouette_composites_silhouette_talls_100_118.png,wides_025_023,0,1,100,100,A,False,invalid,talls_102_126,wides_024_011,tall,tall_100,tall_118,B,tower-zipping,80,631367,0.0-80.0,trial_end,block_construction_zipping,pilot_0,61678071de3b5fb66dd56f43,6077-f23a7e61-5a66-4da1-9d16-9a0ae3df945e,incompatible,talls_102_126.png,7.0,False
58,58,616790a69075de37027a1f7f,1352.0999999046326,https://tower-4-block-unique-silhouettes-composite-silhouette-png.s3.amazonaws.com/tower_4_block_unique_silhouette_composites_silhouette_talls_100_118.png,z,1,https://tower-4-block-unique-silhouettes-composite-silhouette-png.s3.amazonaws.com/tower_4_block_unique_silhouette_composites_silhouette_talls_100_118.png,wides_025_023,0,1,100,100,A,False,invalid,talls_100_118,wides_013_010,tall,tall_102,tall_127,none,tower-zipping,81,634242,0.0-81.0,trial_end,block_construction_zipping,pilot_0,61678071de3b5fb66dd56f43,6077-f23a7e61-5a66-4da1-9d16-9a0ae3df945e,novel,talls_100_118.png,7.0,False
59,59,616790a99075de37027a1f80,1367.7000000476837,https://tower-4-block-unique-silhouettes-composite-silhouette-png.s3.amazonaws.com/tower_4_block_unique_silhouette_composites_silhouette_talls_102_126.png,z,1,https://tower-4-block-unique-silhouettes-composite-silhouette-png.s3.amazonaws.com/tower_4_block_unique_silhouette_composites_silhouette_talls_100_118.png,wides_025_023,0,1,100,100,A,True,invalid,talls_102_126,wides_024_011,wide,wide_013,wide_010,A,tower-zipping,82,637135,0.0-82.0,trial_end,block_construction_zipping,pilot_0,61678071de3b5fb66dd56f43,6077-f23a7e61-5a66-4da1-9d16-9a0ae3df945e,compatible,talls_102_126.png,7.0,False
60,60,616790ab9075de37027a1f81,1357.0999999046326,https://tower-4-block-unique-silhouettes-composite-silhouette-png.s3.amazonaws.com/tower_4_block_unique_silhouette_composites_silhouette_talls_100_118.png,m,1,https://tower-4-block-unique-silhouettes-composite-silhouette-png.s3.amazonaws.com/tower_4_block_unique_silhouette_composites_silhouette_talls_100_118.png,wides_025_023,1,1,100,100,A,False,valid,talls_100_118,wides_013_010,wide,wide_013,wide_010,none,tower-zipping,83,640032,0.0-83.0,trial_end,block_construction_zipping,pilot_0,61678071de3b5fb66dd56f43,6077-f23a7e61-5a66-4da1-9d16-9a0ae3df945e,novel,talls_100_118.png,7.0,False
61,61,616790ae9075de37027a1f82,1429.8000001907349,https://tower-4-block-unique-silhouettes-composite-silhouette-png.s3.amazonaws.com/tower_4_block_unique_silhouette_composites_silhouette_talls_122_127.png,m,1,https://tower-4-block-unique-silhouettes-composite-silhouette-png.s3.amazonaws.com/tower_4_block_unique_silhouette_composites_silhouette_talls_100_118.png,wides_025_023,1,1,100,100,A,False,valid,talls_122_127,wides_025_023,wide,wide_025,wide_023,B,tower-zipping,84,642931,0.0-84.0,trial_end,block_construction_zipping,pilot_0,61678071de3b5fb66dd56f43,6077-f23a7e61-5a66-4da1-9d16-9a0ae3df945e,incompatible,talls_122_127.png,7.0,False
62,62,616790b19075de37027a1f83,1222.4000000953674,https://tower-4-block-unique-silhouettes-composite-silhouette-png.s3.amazonaws.com/tower_4_block_unique_silhouette_composites_silhouette_talls_122_127.png,z,1,https://tower-4-block-unique-silhouettes-composite-silhouette-png.s3.amazonaws.com/tower_4_block_unique_silhouette_composites_silhouette_talls_100_118.png,wides_025_023,1,1,100,100,A,True,invalid,talls_122_127,wides_025_023,tall,tall_118,tall_100,A,tower-zipping,85,645704,0.0-85.0,trial_end,block_construction_zipping,pilot_0,61678071de3b5fb66dd56f43,6077-f23a7e61-5a66-4da1-9d16-9a0ae3df945e,compatible,talls_122_127.png,7.0,False
63,63,616790b49075de37027a1f84,1161.3999998569489,https://tower-4-block-unique-silhouettes-composite-silhouette-png.s3.amazonaws.com/tower_4_block_unique_silhouette_composites_silhouette_talls_102_126.png,m,1,https://tower-4-block-unique-silhouettes-composite-silhouette-png.s3.amazonaws.com/tower_4_block_unique_silhouette_composites_silhouette_talls_100_118.png,wides_025_023,1,1,100,100,A,False,valid,talls_102_126,wides_024_011,tall,tall_102,tall_126,B,tower-zipping,86,648406,0.0-86.0,trial_end,block_construction_zipping,pilot_0,61678071de3b5fb66dd56f43,6077-f23a7e61-5a66-4da1-9d16-9a0ae3df945e,incompatible,talls_102_126.png,7.0,False
64,64,616790b69075de37027a1f85,956.2999999523163,https://tower-4-block-unique-silhouettes-composite-silhouette-png.s3.amazonaws.com/tower_4_block_unique_silhouette_composites_silhouette_talls_100_118.png,m,1,https://tower-4-block-unique-silhouettes-composite-silhouette-png.s3.amazonaws.com/tower_4_block_unique_silhouette_composites_silhouette_talls_100_118.png,wides_025_023,1,1,100,100,A,False,valid,talls_100_118,wides_013_010,tall,tall_100,tall_118,none,tower-zipping,87,650887,0.0-87.0,trial_end,block_construction_zipping,pilot_0,61678071de3b5fb66dd56f43,6077-f23a7e61-5a66-4da1-9d16-9a0ae3df945e,novel,talls_100_118.png,7.0,False
65,65,616790b99075de37027a1f86,1172.2999999523163,https://tower-4-block-unique-silhouettes-composite-silhouette-png.s3.amazonaws.com/tower_4_block_unique_silhouette_composites_silhouette_talls_102_126.png,m,1,https://tower-4-block-unique-silhouettes-composite-silhouette-png.s3.amazonaws.com/tower_4_block_unique_silhouette_composites_silhouette_talls_100_118.png,wides_025_023,1,1,100,100,A,True,valid,talls_102_126,wides_024_011,wide,wide_024,wide_011,A,tower-zipping,88,653599,0.0-88.0,trial_end,block_construction_zipping,pilot_0,61678071de3b5fb66dd56f43,6077-f23a7e61-5a66-4da1-9d16-9a0ae3df945e,compatible,talls_102_126.png,7.0,False
66,66,616790bc9075de37027a1f87,1029.0,https://tower-4-block-unique-silhouettes-composite-silhouette-png.s3.amazonaws.com/tower_4_block_unique_silhouette_composites_silhouette_talls_122_127.png,z,1,https://tower-4-block-unique-silhouettes-composite-silhouette-png.s3.amazonaws.com/tower_4_block_unique_silhouette_composites_silhouette_talls_100_118.png,wides_025_023,1,1,100,100,A,False,invalid,talls_122_127,wides_025_023,wide,wide_010,wide_013,B,tower-zipping,89,656101,0.0-89.0,trial_end,block_construction_zipping,pilot_0,61678071de3b5fb66dd56f43,6077-f23a7e61-5a66-4da1-9d16-9a0ae3df945e,incompatible,talls_122_127.png,7.0,False
67,67,616790be9075de37027a1f88,1165.8999998569489,https://tower-4-block-unique-silhouettes-composite-silhouette-png.s3.amazonaws.com/tower_4_block_unique_silhouette_composites_silhouette_talls_102_126.png,z,1,https://tower-4-block-unique-silhouettes-composite-silhouette-png.s3.amazonaws.com/tower_4_block_unique_silhouette_composites_silhouette_talls_100_118.png,wides_025_023,1,1,100,100,A,False,invalid,talls_102_126,wides_024_011,tall,tall_118,tall_100,B,tower-zipping,90,658808,0.0-90.0,trial_end,block_construction_zipping,pilot_0,61678071de3b5fb66dd56f43,6077-f23a7e61-5a66-4da1-9d16-9a0ae3df945e,incompatible,talls_102_126.png,8.0,False
68,68,616790c19075de37027a1f89,968.3000001907349,https://tower-4-block-unique-silhouettes-composite-silhouette-png.s3.amazonaws.com/tower_4_block_unique_silhouette_composites_silhouette_talls_100_118.png,z,1,https://tower-4-block-unique-silhouettes-composite-silhouette-png.s3.amazonaws.com/tower_4_block_unique_silhouette_composites_silhouette_talls_100_118.png,wides_025_023,1,1,100,100,A,False,invalid,talls_100_118,wides_013_010,wide,wide_025,wide_011,none,tower-zipping,91,661310,0.0-91.0,trial_end,block_construction_zipping,pilot_0,61678071de3b5fb66dd56f43,6077-f23a7e61-5a66-4da1-9d16-9a0ae3df945e,novel,talls_100_118.png,8.0,False
69,69,616790c39075de37027a1f8a,982.0,https://tower-4-block-unique-silhouettes-composite-silhouette-png.s3.amazonaws.com/tower_4_block_unique_silhouette_composites_silhouette_talls_100_118.png,z,1,https://tower-4-block-unique-silhouettes-composite-silhouette-png.s3.amazonaws.com/tower_4_block_unique_silhouette_composites_silhouette_talls_100_118.png,wides_025_023,1,1,100,100,A,False,invalid,talls_100_118,wides_013_010,tall,tall_122,tall_126,none,tower-zipping,92,663833,0.0-92.0,trial_end,block_construction_zipping,pilot_0,61678071de3b5fb66dd56f43,6077-f23a7e61-5a66-4da1-9d16-9a0ae3df945e,novel,talls_100_118.png,8.0,False
70,70,616790c69075de37027a1f8b,1031.9000000953674,https://tower-4-block-unique-silhouettes-composite-silhouette-png.s3.amazonaws.com/tower_4_block_unique_silhouette_composites_silhouette_talls_102_126.png,z,1,https://tower-4-block-unique-silhouettes-composite-silhouette-png.s3.amazonaws.com/tower_4_block_unique_silhouette_composites_silhouette_talls_100_118.png,wides_025_023,1,1,100,100,A,True,invalid,talls_102_126,wides_024_011,wide,wide_010,wide_013,A,tower-zipping,93,666383,0.0-93.0,trial_end,block_construction_zipping,pilot_0,61678071de3b5fb66dd56f43,6077-f23a7e61-5a66-4da1-9d16-9a0ae3df945e,compatible,talls_102_126.png,8.0,False
71,71,616790c89075de37027a1f8c,1026.7000000476837,https://tower-4-block-unique-silhouettes-composite-silhouette-png.s3.amazonaws.com/tower_4_block_unique_silhouette_composites_silhouette_talls_122_127.png,m,1,https://tower-4-block-unique-silhouettes-composite-silhouette-png.s3.amazonaws.com/tower_4_block_unique_silhouette_composites_silhouette_talls_100_118.png,wides_025_023,1,1,100,100,A,True,valid,talls_122_127,wides_025_023,tall,tall_122,tall_127,A,tower-zipping,94,668893,0.0-94.0,trial_end,block_construction_zipping,pilot_0,61678071de3b5fb66dd56f43,6077-f23a7e61-5a66-4da1-9d16-9a0ae3df945e,compatible,talls_122_127.png,8.0,False
72,72,616790cb9075de37027a1f8d,960.3999998569489,https://tower-4-block-unique-silhouettes-composite-silhouette-png.s3.amazonaws.com/tower_4_block_unique_silhouette_composites_silhouette_talls_100_118.png,z,1,https://tower-4-block-unique-silhouettes-composite-silhouette-png.s3.amazonaws.com/tower_4_block_unique_silhouette_composites_silhouette_talls_100_118.png,wides_025_023,2,1,100,100,A,False,invalid,talls_100_118,wides_013_010,wide,wide_023,wide_025,none,tower-zipping,95,671394,0.0-95.0,trial_end,block_construction_zipping,pilot_0,61678071de3b5fb66dd56f43,6077-f23a7e61-5a66-4da1-9d16-9a0ae3df945e,novel,talls_100_118.png,8.0,False
73,73,616790cd9075de37027a1f8e,957.2000000476837,https://tower-4-block-unique-silhouettes-composite-silhouette-png.s3.amazonaws.com/tower_4_block_unique_silhouette_composites_silhouette_talls_102_126.png,z,1,https://tower-4-block-unique-silhouettes-composite-silhouette-png.s3.amazonaws.com/tower_4_block_unique_silhouette_composites_silhouette_talls_100_118.png,wides_025_023,2,1,100,100,A,False,invalid,talls_102_126,wides_024_011,tall,tall_100,tall_127,B,tower-zipping,96,673882,0.0-96.0,trial_end,block_construction_zipping,pilot_0,61678071de3b5fb66dd56f43,6077-f23a7e61-5a66-4da1-9d16-9a0ae3df945e,incompatible,talls_102_126.png,8.0,False
74,74,616790d09075de37027a1f8f,963.7999999523163,https://tower-4-block-unique-silhouettes-composite-silhouette-png.s3.amazonaws.com/tower_4_block_unique_silhouette_composites_silhouette_talls_100_118.png,m,1,https://tower-4-block-unique-silhouettes-composite-silhouette-png.s3.amazonaws.com/tower_4_block_unique_silhouette_composites_silhouette_talls_100_118.png,wides_025_023,2,1,100,100,A,False,valid,talls_100_118,wides_013_010,tall,tall_100,tall_118,none,tower-zipping,97,676383,0.0-97.0,trial_end,block_construction_zipping,pilot_0,61678071de3b5fb66dd56f43,6077-f23a7e61-5a66-4da1-9d16-9a0ae3df945e,novel,talls_100_118.png,8.0,False
75,75,616790d29075de37027a1f90,957.0999999046326,https://tower-4-block-unique-silhouettes-composite-silhouette-png.s3.amazonaws.com/tower_4_block_unique_silhouette_composites_silhouette_talls_122_127.png,z,1,https://tower-4-block-unique-silhouettes-composite-silhouette-png.s3.amazonaws.com/tower_4_block_unique_silhouette_composites_silhouette_talls_100_118.png,wides_025_023,2,1,100,100,A,True,invalid,talls_122_127,wides_025_023,tall,tall_100,tall_126,A,tower-zipping,98,678878,0.0-98.0,trial_end,block_construction_zipping,pilot_0,61678071de3b5fb66dd56f43,6077-f23a7e61-5a66-4da1-9d16-9a0ae3df945e,compatible,talls_122_127.png,8.0,False
76,76,616790d59075de37027a1f91,965.0,https://tower-4-block-unique-silhouettes-composite-silhouette-png.s3.amazonaws.com/tower_4_block_unique_silhouette_composites_silhouette_talls_122_127.png,m,1,https://tower-4-block-unique-silhouettes-composite-silhouette-png.s3.amazonaws.com/tower_4_block_unique_silhouette_composites_silhouette_talls_100_118.png,wides_025_023,2,1,100,100,A,False,valid,talls_122_127,wides_025_023,wide,wide_025,wide_023,B,tower-zipping,99,681395,0.0-99.0,trial_end,block_construction_zipping,pilot_0,61678071de3b5fb66dd56f43,6077-f23a7e61-5a66-4da1-9d16-9a0ae3df945e,incompatible,talls_122_127.png,8.0,False
77,77,616790d79075de37027a1f92,970.2999999523163,https://tower-4-block-unique-silhouettes-composite-silhouette-png.s3.amazonaws.com/tower_4_block_unique_silhouette_composites_silhouette_talls_102_126.png,z,1,https://tower-4-block-unique-silhouettes-composite-silhouette-png.s3.amazonaws.com/tower_4_block_unique_silhouette_composites_silhouette_talls_100_118.png,wides_025_023,2,1,100,100,A,True,invalid,talls_102_126,wides_024_011,wide,wide_013,wide_023,A,tower-zipping,100,683891,0.0-100.0,trial_end,block_construction_zipping,pilot_0,61678071de3b5fb66dd56f43,6077-f23a7e61-5a66-4da1-9d16-9a0ae3df945e,compatible,talls_102_126.png,8.0,False
78,78,616790da9075de37027a1f93,1022.2999999523163,https://tower-4-block-unique-silhouettes-composite-silhouette-png.s3.amazonaws.com/tower_4_block_unique_silhouette_composites_silhouette_talls_100_118.png,z,1,https://tower-4-block-unique-silhouettes-composite-silhouette-png.s3.amazonaws.com/tower_4_block_unique_silhouette_composites_silhouette_talls_100_118.png,wides_025_023,2,1,100,100,A,False,invalid,talls_100_118,wides_013_010,tall,tall_127,tall_122,none,tower-zipping,101,686401,0.0-101.0,trial_end,block_construction_zipping,pilot_0,61678071de3b5fb66dd56f43,6077-f23a7e61-5a66-4da1-9d16-9a0ae3df945e,novel,talls_100_118.png,8.0,False
79,79,616790dc9075de37027a1f94,959.7999999523163,https://tower-4-block-unique-silhouettes-composite-silhouette-png.s3.amazonaws.com/tower_4_block_unique_silhouette_composites_silhouette_talls_102_126.png,m,1,https://tower-4-block-unique-silhouettes-composite-silhouette-png.s3.amazonaws.com/tower_4_block_unique_silhouette_composites_silhouette_talls_100_118.png,wides_025_023,2,1,100,100,A,False,valid,talls_102_126,wides_024_011,tall,tall_102,tall_126,B,tower-zipping,102,688899,0.0-102.0,trial_end,block_construction_zipping,pilot_0,61678071de3b5fb66dd56f43,6077-f23a7e61-5a66-4da1-9d16-9a0ae3df945e,incompatible,talls_102_126.png,8.0,False
80,80,616790df9075de37027a1f95,962.5,https://tower-4-block-unique-silhouettes-composite-silhouette-png.s3.amazonaws.com/tower_4_block_unique_silhouette_composites_silhouette_talls_102_126.png,m,1,https://tower-4-block-unique-silhouettes-composite-silhouette-png.s3.amazonaws.com/tower_4_block_unique_silhouette_composites_silhouette_talls_100_118.png,wides_025_023,2,1,100,100,A,True,valid,talls_102_126,wides_024_011,wide,wide_024,wide_011,A,tower-zipping,103,691435,0.0-103.0,trial_end,block_construction_zipping,pilot_0,61678071de3b5fb66dd56f43,6077-f23a7e61-5a66-4da1-9d16-9a0ae3df945e,compatible,talls_102_126.png,9.0,False
81,81,616790e29075de37027a1f96,1368.3999998569489,https://tower-4-block-unique-silhouettes-composite-silhouette-png.s3.amazonaws.com/tower_4_block_unique_silhouette_composites_silhouette_talls_122_127.png,m,1,https://tower-4-block-unique-silhouettes-composite-silhouette-png.s3.amazonaws.com/tower_4_block_unique_silhouette_composites_silhouette_talls_100_118.png,wides_025_023,2,1,100,100,A,True,valid,talls_122_127,wides_025_023,tall,tall_122,tall_127,A,tower-zipping,104,694332,0.0-104.0,trial_end,block_construction_zipping,pilot_0,61678071de3b5fb66dd56f43,6077-f23a7e61-5a66-4da1-9d16-9a0ae3df945e,compatible,talls_122_127.png,9.0,False
82,82,616790e49075de37027a1f97,970.7999999523163,https://tower-4-block-unique-silhouettes-composite-silhouette-png.s3.amazonaws.com/tower_4_block_unique_silhouette_composites_silhouette_talls_100_118.png,m,1,https://tower-4-block-unique-silhouettes-composite-silhouette-png.s3.amazonaws.com/tower_4_block_unique_silhouette_composites_silhouette_talls_100_118.png,wides_025_023,2,1,100,100,A,False,valid,talls_100_118,wides_013_010,wide,wide_013,wide_010,none,tower-zipping,105,696811,0.0-105.0,trial_end,block_construction_zipping,pilot_0,61678071de3b5fb66dd56f43,6077-f23a7e61-5a66-4da1-9d16-9a0ae3df945e,novel,talls_100_118.png,9.0,False
83,83,616790e79075de37027a1f98,1374.5999999046326,https://tower-4-block-unique-silhouettes-composite-silhouette-png.s3.amazonaws.com/tower_4_block_unique_silhouette_composites_silhouette_talls_122_127.png,z,1,https://tower-4-block-unique-silhouettes-composite-silhouette-png.s3.amazonaws.com/tower_4_block_unique_silhouette_composites_silhouette_talls_100_118.png,wides_025_023,2,1,100,100,A,False,invalid,talls_122_127,wides_025_023,wide,wide_013,wide_011,B,tower-zipping,106,699591,0.0-106.0,trial_end,block_construction_zipping,pilot_0,61678071de3b5fb66dd56f43,6077-f23a7e61-5a66-4da1-9d16-9a0ae3df945e,incompatible,talls_122_127.png,9.0,False
84,84,616790e99075de37027a1f99,822.6000001430511,https://tower-4-block-unique-silhouettes-composite-silhouette-png.s3.amazonaws.com/tower_4_block_unique_silhouette_composites_silhouette_talls_100_118.png,m,1,https://tower-4-block-unique-silhouettes-composite-silhouette-png.s3.amazonaws.com/tower_4_block_unique_silhouette_composites_silhouette_talls_100_118.png,wides_025_023,3,1,100,100,A,False,valid,talls_100_118,wides_013_010,tall,tall_100,tall_118,none,tower-zipping,107,701881,0.0-107.0,trial_end,block_construction_zipping,pilot_0,61678071de3b5fb66dd56f43,6077-f23a7e61-5a66-4da1-9d16-9a0ae3df945e,novel,talls_100_118.png,9.0,False
85,85,616790ec9075de37027a1f9a,815.1000001430511,https://tower-4-block-unique-silhouettes-composite-silhouette-png.s3.amazonaws.com/tower_4_block_unique_silhouette_composites_silhouette_talls_122_127.png,m,1,https://tower-4-block-unique-silhouettes-composite-silhouette-png.s3.amazonaws.com/tower_4_block_unique_silhouette_composites_silhouette_talls_100_118.png,wides_025_023,3,1,100,100,A,True,valid,talls_122_127,wides_025_023,tall,tall_122,tall_127,A,tower-zipping,108,704164,0.0-108.0,trial_end,block_construction_zipping,pilot_0,61678071de3b5fb66dd56f43,6077-f23a7e61-5a66-4da1-9d16-9a0ae3df945e,compatible,talls_122_127.png,9.0,False
86,86,616790ee9075de37027a1f9b,967.2000000476837,https://tower-4-block-unique-silhouettes-composite-silhouette-png.s3.amazonaws.com/tower_4_block_unique_silhouette_composites_silhouette_talls_102_126.png,z,1,https://tower-4-block-unique-silhouettes-composite-silhouette-png.s3.amazonaws.com/tower_4_block_unique_silhouette_composites_silhouette_talls_100_118.png,wides_025_023,3,1,100,100,A,True,invalid,talls_102_126,wides_024_011,wide,wide_025,wide_010,A,tower-zipping,109,706669,0.0-109.0,trial_end,block_construction_zipping,pilot_0,61678071de3b5fb66dd56f43,6077-f23a7e61-5a66-4da1-9d16-9a0ae3df945e,compatible,talls_102_126.png,9.0,False
87,87,616790f09075de37027a1f9d,826.5,https://tower-4-block-unique-silhouettes-composite-silhouette-png.s3.amazonaws.com/tower_4_block_unique_silhouette_composites_silhouette_talls_122_127.png,z,1,https://tower-4-block-unique-silhouettes-composite-silhouette-png.s3.amazonaws.com/tower_4_block_unique_silhouette_composites_silhouette_talls_100_118.png,wides_025_023,3,1,100,100,A,False,invalid,talls_122_127,wides_025_023,wide,wide_024,wide_010,B,tower-zipping,110,708973,0.0-110.0,trial_end,block_construction_zipping,pilot_0,61678071de3b5fb66dd56f43,6077-f23a7e61-5a66-4da1-9d16-9a0ae3df945e,incompatible,talls_122_127.png,9.0,False
88,88,616790f39075de37027a1f9e,963.5,https://tower-4-block-unique-silhouettes-composite-silhouette-png.s3.amazonaws.com/tower_4_block_unique_silhouette_composites_silhouette_talls_100_118.png,z,1,https://tower-4-block-unique-silhouettes-composite-silhouette-png.s3.amazonaws.com/tower_4_block_unique_silhouette_composites_silhouette_talls_100_118.png,wides_025_023,3,1,100,100,A,False,invalid,talls_100_118,wides_013_010,tall,tall_126,tall_122,none,tower-zipping,111,711480,0.0-111.0,trial_end,block_construction_zipping,pilot_0,61678071de3b5fb66dd56f43,6077-f23a7e61-5a66-4da1-9d16-9a0ae3df945e,novel,talls_100_118.png,9.0,False
89,89,616790f69075de37027a1f9f,1185.3999998569489,https://tower-4-block-unique-silhouettes-composite-silhouette-png.s3.amazonaws.com/tower_4_block_unique_silhouette_composites_silhouette_talls_102_126.png,m,1,https://tower-4-block-unique-silhouettes-composite-silhouette-png.s3.amazonaws.com/tower_4_block_unique_silhouette_composites_silhouette_talls_100_118.png,wides_025_023,3,1,100,100,A,False,valid,talls_102_126,wides_024_011,tall,tall_102,tall_126,B,tower-zipping,112,714203,0.0-112.0,trial_end,block_construction_zipping,pilot_0,61678071de3b5fb66dd56f43,6077-f23a7e61-5a66-4da1-9d16-9a0ae3df945e,incompatible,talls_102_126.png,9.0,False
90,90,616790f89075de37027a1fa0,759.7000000476837,https://tower-4-block-unique-silhouettes-composite-silhouette-png.s3.amazonaws.com/tower_4_block_unique_silhouette_composites_silhouette_talls_102_126.png,z,1,https://tower-4-block-unique-silhouettes-composite-silhouette-png.s3.amazonaws.com/tower_4_block_unique_silhouette_composites_silhouette_talls_100_118.png,wides_025_023,3,1,100,100,A,False,invalid,talls_102_126,wides_024_011,tall,tall_122,tall_118,B,tower-zipping,113,716487,0.0-113.0,trial_end,block_construction_zipping,pilot_0,61678071de3b5fb66dd56f43,6077-f23a7e61-5a66-4da1-9d16-9a0ae3df945e,incompatible,talls_102_126.png,9.0,False
91,91,616790fa9075de37027a1fa1,827.1999998092651,https://tower-4-block-unique-silhouettes-composite-silhouette-png.s3.amazonaws.com/tower_4_block_unique_silhouette_composites_silhouette_talls_122_127.png,z,1,https://tower-4-block-unique-silhouettes-composite-silhouette-png.s3.amazonaws.com/tower_4_block_unique_silhouette_composites_silhouette_talls_100_118.png,wides_025_023,3,1,100,100,A,True,invalid,talls_122_127,wides_025_023,tall,tall_102,tall_118,A,tower-zipping,114,718659,0.0-114.0,trial_end,block_construction_zipping,pilot_0,61678071de3b5fb66dd56f43,6077-f23a7e61-5a66-4da1-9d16-9a0ae3df945e,compatible,talls_122_127.png,10.0,False
92,92,616790fd9075de37027a1fa2,965.7999999523163,https://tower-4-block-unique-silhouettes-composite-silhouette-png.s3.amazonaws.com/tower_4_block_unique_silhouette_composites_silhouette_talls_102_126.png,m,1,https://tower-4-block-unique-silhouettes-composite-silhouette-png.s3.amazonaws.com/tower_4_block_unique_silhouette_composites_silhouette_talls_100_118.png,wides_025_023,3,1,100,100,A,True,valid,talls_102_126,wides_024_011,wide,wide_024,wide_011,A,tower-zipping,115,721177,0.0-115.0,trial_end,block_construction_zipping,pilot_0,61678071de3b5fb66dd56f43,6077-f23a7e61-5a66-4da1-9d16-9a0ae3df945e,compatible,talls_102_126.png,10.0,False
93,93,616790ff9075de37027a1fa3,961.1000001430511,https://tower-4-block-unique-silhouettes-composite-silhouette-png.s3.amazonaws.com/tower_4_block_unique_silhouette_composites_silhouette_talls_100_118.png,m,1,https://tower-4-block-unique-silhouettes-composite-silhouette-png.s3.amazonaws.com/tower_4_block_unique_silhouette_composites_silhouette_talls_100_118.png,wides_025_023,3,1,100,100,A,False,valid,talls_100_118,wides_013_010,wide,wide_013,wide_010,none,tower-zipping,116,723678,0.0-116.0,trial_end,block_construction_zipping,pilot_0,61678071de3b5fb66dd56f43,6077-f23a7e61-5a66-4da1-9d16-9a0ae3df945e,novel,talls_100_118.png,10.0,False
94,94,616791019075de37027a1fa4,762.2999999523163,https://tower-4-block-unique-silhouettes-composite-silhouette-png.s3.amazonaws.com/tower_4_block_unique_silhouette_composites_silhouette_talls_122_127.png,m,1,https://tower-4-block-unique-silhouettes-composite-silhouette-png.s3.amazonaws.com/tower_4_block_unique_silhouette_composites_silhouette_talls_100_118.png,wides_025_023,3,1,100,100,A,False,valid,talls_122_127,wides_025_023,wide,wide_025,wide_023,B,tower-zipping,117,725991,0.0-117.0,trial_end,block_construction_zipping,pilot_0,61678071de3b5fb66dd56f43,6077-f23a7e61-5a66-4da1-9d16-9a0ae3df945e,incompatible,talls_122_127.png,10.0,False
95,95,616791049075de37027a1fa5,827.4000000953674,https://tower-4-block-unique-silhouettes-composite-silhouette-png.s3.amazonaws.com/tower_4_block_unique_silhouette_composites_silhouette_talls_100_118.png,z,1,https://tower-4-block-unique-silhouettes-composite-silhouette-png.s3.amazonaws.com/tower_4_block_unique_silhouette_composites_silhouette_talls_100_118.png,wides_025_023,3,1,100,100,A,False,invalid,talls_100_118,wides_013_010,wide,wide_011,wide_025,none,tower-zipping,118,728307,0.0-118.0,trial_end,block_construction_zipping,pilot_0,61678071de3b5fb66dd56f43,6077-f23a7e61-5a66-4da1-9d16-9a0ae3df945e,novel,talls_100_118.png,10.0,False
96,96,616791179075de37027a1fa8,3067.2999999523163,https://tower-4-block-unique-silhouettes-composite-silhouette-png.s3.amazonaws.com/tower_4_block_unique_silhouette_composites_silhouette_talls_100_118.png,z,1,https://tower-4-block-unique-silhouettes-composite-silhouette-png.s3.amazonaws.com/tower_4_block_unique_silhouette_composites_silhouette_talls_100_118.png,wides_025_023,0,2,1000,1000,A,False,invalid,talls_100_118,wides_013_010,wide,wide_024,wide_023,none,tower-zipping,121,747265,0.0-121.0,trial_end,block_construction_zipping,pilot_0,61678071de3b5fb66dd56f43,6077-f23a7e61-5a66-4da1-9d16-9a0ae3df945e,novel,talls_100_118.png,10.0,False
97,97,6167911a9075de37027a1fa9,1171.5,https://tower-4-block-unique-silhouettes-composite-silhouette-png.s3.amazonaws.com/tower_4_block_unique_silhouette_composites_silhouette_talls_102_126.png,m,1,https://tower-4-block-unique-silhouettes-composite-silhouette-png.s3.amazonaws.com/tower_4_block_unique_silhouette_composites_silhouette_talls_100_118.png,wides_025_023,0,2,1000,1000,A,False,valid,talls_102_126,wides_024_011,tall,tall_102,tall_126,B,tower-zipping,122,750798,0.0-122.0,trial_end,block_construction_zipping,pilot_0,61678071de3b5fb66dd56f43,6077-f23a7e61-5a66-4da1-9d16-9a0ae3df945e,incompatible,talls_102_126.png,10.0,False
98,98,6167911d9075de37027a1faa,823.0999999046326,https://tower-4-block-unique-silhouettes-composite-silhouette-png.s3.amazonaws.com/tower_4_block_unique_silhouette_composites_silhouette_talls_122_127.png,m,1,https://tower-4-block-unique-silhouettes-composite-silhouette-png.s3.amazonaws.com/tower_4_block_unique_silhouette_composites_silhouette_talls_100_118.png,wides_025_023,0,2,1000,1000,A,False,valid,talls_122_127,wides_025_023,wide,wide_025,wide_023,B,tower-zipping,123,753930,0.0-123.0,trial_end,block_construction_zipping,pilot_0,61678071de3b5fb66dd56f43,6077-f23a7e61-5a66-4da1-9d16-9a0ae3df945e,incompatible,talls_122_127.png,10.0,False
99,99,616791219075de37027a1fab,848.4000000953674,https://tower-4-block-unique-silhouettes-composite-silhouette-png.s3.amazonaws.com/tower_4_block_unique_silhouette_composites_silhouette_talls_122_127.png,m,1,https://tower-4-block-unique-silhouettes-composite-silhouette-png.s3.amazonaws.com/tower_4_block_unique_silhouette_composites_silhouette_talls_100_118.png,wides_025_023,0,2,1000,1000,A,True,valid,talls_122_127,wides_025_023,tall,tall_122,tall_127,A,tower-zipping,124,757100,0.0-124.0,trial_end,block_construction_zipping,pilot_0,61678071de3b5fb66dd56f43,6077-f23a7e61-5a66-4da1-9d16-9a0ae3df945e,compatible,talls_122_127.png,10.0,False
100,100,616791249075de37027a1fac,1037.0999999046326,https://tower-4-block-unique-silhouettes-composite-silhouette-png.s3.amazonaws.com/tower_4_block_unique_silhouette_composites_silhouette_talls_102_126.png,m,1,https://tower-4-block-unique-silhouettes-composite-silhouette-png.s3.amazonaws.com/tower_4_block_unique_silhouette_composites_silhouette_talls_100_118.png,wides_025_023,0,2,1000,1000,A,True,valid,talls_102_126,wides_024_011,wide,wide_024,wide_011,A,tower-zipping,125,760579,0.0-125.0,trial_end,block_construction_zipping,pilot_0,61678071de3b5fb66dd56f43,6077-f23a7e61-5a66-4da1-9d16-9a0ae3df945e,compatible,talls_102_126.png,10.0,False
101,101,616791279075de37027a1fad,969.9000000953674,https://tower-4-block-unique-silhouettes-composite-silhouette-png.s3.amazonaws.com/tower_4_block_unique_silhouette_composites_silhouette_talls_102_126.png,z,1,https://tower-4-block-unique-silhouettes-composite-silhouette-png.s3.amazonaws.com/tower_4_block_unique_silhouette_composites_silhouette_talls_100_118.png,wides_025_023,0,2,1000,1000,A,False,invalid,talls_102_126,wides_024_011,tall,tall_100,tall_118,B,tower-zipping,126,763936,0.0-126.0,trial_end,block_construction_zipping,pilot_0,61678071de3b5fb66dd56f43,6077-f23a7e61-5a66-4da1-9d16-9a0ae3df945e,incompatible,talls_102_126.png,10.0,False
102,102,6167912a9075de37027a1fae,702.1999998092651,https://tower-4-block-unique-silhouettes-composite-silhouette-png.s3.amazonaws.com/tower_4_block_unique_silhouette_composites_silhouette_talls_100_118.png,m,1,https://tower-4-block-unique-silhouettes-composite-silhouette-png.s3.amazonaws.com/tower_4_block_unique_silhouette_composites_silhouette_talls_100_118.png,wides_025_023,0,2,1000,1000,A,False,valid,talls_100_118,wides_013_010,tall,tall_100,tall_118,none,tower-zipping,127,766982,0.0-127.0,trial_end,block_construction_zipping,pilot_0,61678071de3b5fb66dd56f43,6077-f23a7e61-5a66-4da1-9d16-9a0ae3df945e,novel,talls_100_118.png,11.0,False
103,103,6167912e9075de37027a1faf,828.0999999046326,https://tower-4-block-unique-silhouettes-composite-silhouette-png.s3.amazonaws.com/tower_4_block_unique_silhouette_composites_silhouette_talls_122_127.png,z,1,https://tower-4-block-unique-silhouettes-composite-silhouette-png.s3.amazonaws.com/tower_4_block_unique_silhouette_composites_silhouette_talls_100_118.png,wides_025_023,0,2,1000,1000,A,False,invalid,talls_122_127,wides_025_023,wide,wide_013,wide_010,B,tower-zipping,128,770202,0.0-128.0,trial_end,block_construction_zipping,pilot_0,61678071de3b5fb66dd56f43,6077-f23a7e61-5a66-4da1-9d16-9a0ae3df945e,incompatible,talls_122_127.png,11.0,False
104,104,616791319075de37027a1fb0,764.3999998569489,https://tower-4-block-unique-silhouettes-composite-silhouette-png.s3.amazonaws.com/tower_4_block_unique_silhouette_composites_silhouette_talls_122_127.png,z,1,https://tower-4-block-unique-silhouettes-composite-silhouette-png.s3.amazonaws.com/tower_4_block_unique_silhouette_composites_silhouette_talls_100_118.png,wides_025_023,0,2,1000,1000,A,True,invalid,talls_122_127,wides_025_023,tall,tall_100,tall_118,A,tower-zipping,129,773354,0.0-129.0,trial_end,block_construction_zipping,pilot_0,61678071de3b5fb66dd56f43,6077-f23a7e61-5a66-4da1-9d16-9a0ae3df945e,compatible,talls_122_127.png,11.0,False
105,105,616791349075de37027a1fb1,964.1000001430511,https://tower-4-block-unique-silhouettes-composite-silhouette-png.s3.amazonaws.com/tower_4_block_unique_silhouette_composites_silhouette_talls_100_118.png,m,1,https://tower-4-block-unique-silhouettes-composite-silhouette-png.s3.amazonaws.com/tower_4_block_unique_silhouette_composites_silhouette_talls_100_118.png,wides_025_023,0,2,1000,1000,A,False,valid,talls_100_118,wides_013_010,wide,wide_013,wide_010,none,tower-zipping,130,776699,0.0-130.0,trial_end,block_construction_zipping,pilot_0,61678071de3b5fb66dd56f43,6077-f23a7e61-5a66-4da1-9d16-9a0ae3df945e,novel,talls_100_118.png,11.0,False
106,106,616791379075de37027a1fb2,772.6000001430511,https://tower-4-block-unique-silhouettes-composite-silhouette-png.s3.amazonaws.com/tower_4_block_unique_silhouette_composites_silhouette_talls_100_118.png,z,1,https://tower-4-block-unique-silhouettes-composite-silhouette-png.s3.amazonaws.com/tower_4_block_unique_silhouette_composites_silhouette_talls_100_118.png,wides_025_023,0,2,1000,1000,A,False,invalid,talls_100_118,wides_013_010,tall,tall_102,tall_127,none,tower-zipping,131,779840,0.0-131.0,trial_end,block_construction_zipping,pilot_0,61678071de3b5fb66dd56f43,6077-f23a7e61-5a66-4da1-9d16-9a0ae3df945e,novel,talls_100_118.png,11.0,False
107,107,6167913b9075de37027a1fb3,964.2999999523163,https://tower-4-block-unique-silhouettes-composite-silhouette-png.s3.amazonaws.com/tower_4_block_unique_silhouette_composites_silhouette_talls_102_126.png,z,1,https://tower-4-block-unique-silhouettes-composite-silhouette-png.s3.amazonaws.com/tower_4_block_unique_silhouette_composites_silhouette_talls_100_118.png,wides_025_023,0,2,1000,1000,A,True,invalid,talls_102_126,wides_024_011,wide,wide_013,wide_010,A,tower-zipping,132,783187,0.0-132.0,trial_end,block_construction_zipping,pilot_0,61678071de3b5fb66dd56f43,6077-f23a7e61-5a66-4da1-9d16-9a0ae3df945e,compatible,talls_102_126.png,11.0,False
108,108,6167913e9075de37027a1fb4,832.7000000476837,https://tower-4-block-unique-silhouettes-composite-silhouette-png.s3.amazonaws.com/tower_4_block_unique_silhouette_composites_silhouette_talls_102_126.png,m,0,https://tower-4-block-unique-silhouettes-composite-silhouette-png.s3.amazonaws.com/tower_4_block_unique_silhouette_composites_silhouette_talls_100_118.png,wides_025_023,1,2,1000,1000,A,False,invalid,talls_102_126,wides_024_011,tall,tall_118,tall_100,B,tower-zipping,133,786353,0.0-133.0,trial_end,block_construction_zipping,pilot_0,61678071de3b5fb66dd56f43,6077-f23a7e61-5a66-4da1-9d16-9a0ae3df945e,incompatible,talls_102_126.png,11.0,False
109,109,616791419075de37027a1fb5,780.0999999046326,https://tower-4-block-unique-silhouettes-composite-silhouette-png.s3.amazonaws.com/tower_4_block_unique_silhouette_composites_silhouette_talls_102_126.png,z,0,https://tower-4-block-unique-silhouettes-composite-silhouette-png.s3.amazonaws.com/tower_4_block_unique_silhouette_composites_silhouette_talls_100_118.png,wides_025_023,1,2,1000,1000,A,True,valid,talls_102_126,wides_024_011,wide,wide_024,wide_011,A,tower-zipping,134,789512,0.0-134.0,trial_end,block_construction_zipping,pilot_0,61678071de3b5fb66dd56f43,6077-f23a7e61-5a66-4da1-9d16-9a0ae3df945e,compatible,talls_102_126.png,11.0,False
110,110,616791449075de37027a1fb6,765.2000000476837,https://tower-4-block-unique-silhouettes-composite-silhouette-png.s3.amazonaws.com/tower_4_block_unique_silhouette_composites_silhouette_talls_122_127.png,m,1,https://tower-4-block-unique-silhouettes-composite-silhouette-png.s3.amazonaws.com/tower_4_block_unique_silhouette_composites_silhouette_talls_100_118.png,wides_025_023,1,2,1000,1000,A,False,valid,talls_122_127,wides_025_023,wide,wide_025,wide_023,B,tower-zipping,135,792659,0.0-135.0,trial_end,block_construction_zipping,pilot_0,61678071de3b5fb66dd56f43,6077-f23a7e61-5a66-4da1-9d16-9a0ae3df945e,incompatible,talls_122_127.png,11.0,False
111,111,616791479075de37027a1fb7,974.5,https://tower-4-block-unique-silhouettes-composite-silhouette-png.s3.amazonaws.com/tower_4_block_unique_silhouette_composites_silhouette_talls_122_127.png,m,1,https://tower-4-block-unique-silhouettes-composite-silhouette-png.s3.amazonaws.com/tower_4_block_unique_silhouette_composites_silhouette_talls_100_118.png,wides_025_023,1,2,1000,1000,A,True,valid,talls_122_127,wides_025_023,tall,tall_122,tall_127,A,tower-zipping,136,796011,0.0-136.0,trial_end,block_construction_zipping,pilot_0,61678071de3b5fb66dd56f43,6077-f23a7e61-5a66-4da1-9d16-9a0ae3df945e,compatible,talls_122_127.png,11.0,False
112,112,6167914b9075de37027a1fb8,835.3999998569489,https://tower-4-block-unique-silhouettes-composite-silhouette-png.s3.amazonaws.com/tower_4_block_unique_silhouette_composites_silhouette_talls_102_126.png,m,1,https://tower-4-block-unique-silhouettes-composite-silhouette-png.s3.amazonaws.com/tower_4_block_unique_silhouette_composites_silhouette_talls_100_118.png,wides_025_023,1,2,1000,1000,A,False,valid,talls_102_126,wides_024_011,tall,tall_102,tall_126,B,tower-zipping,137,799182,0.0-137.0,trial_end,block_construction_zipping,pilot_0,61678071de3b5fb66dd56f43,6077-f23a7e61-5a66-4da1-9d16-9a0ae3df945e,incompatible,talls_102_126.png,11.0,False
113,113,6167914e9075de37027a1fb9,975.5,https://tower-4-block-unique-silhouettes-composite-silhouette-png.s3.amazonaws.com/tower_4_block_unique_silhouette_composites_silhouette_talls_100_118.png,z,1,https://tower-4-block-unique-silhouettes-composite-silhouette-png.s3.amazonaws.com/tower_4_block_unique_silhouette_composites_silhouette_talls_100_118.png,wides_025_023,1,2,1000,1000,A,False,invalid,talls_100_118,wides_013_010,tall,tall_122,tall_126,none,tower-zipping,138,802546,0.0-138.0,trial_end,block_construction_zipping,pilot_0,61678071de3b5fb66dd56f43,6077-f23a7e61-5a66-4da1-9d16-9a0ae3df945e,novel,talls_100_118.png,12.0,False
114,114,616791519075de37027a1fba,832.3999998569489,https://tower-4-block-unique-silhouettes-composite-silhouette-png.s3.amazonaws.com/tower_4_block_unique_silhouette_composites_silhouette_talls_100_118.png,m,1,https://tower-4-block-unique-silhouettes-composite-silhouette-png.s3.amazonaws.com/tower_4_block_unique_silhouette_composites_silhouette_talls_100_118.png,wides_025_023,1,2,1000,1000,A,False,valid,talls_100_118,wides_013_010,wide,wide_013,wide_010,none,tower-zipping,139,805697,0.0-139.0,trial_end,block_construction_zipping,pilot_0,61678071de3b5fb66dd56f43,6077-f23a7e61-5a66-4da1-9d16-9a0ae3df945e,novel,talls_100_118.png,12.0,False
115,115,616791559075de37027a1fbb,974.9000000953674,https://tower-4-block-unique-silhouettes-composite-silhouette-png.s3.amazonaws.com/tower_4_block_unique_silhouette_composites_silhouette_talls_122_127.png,z,1,https://tower-4-block-unique-silhouettes-composite-silhouette-png.s3.amazonaws.com/tower_4_block_unique_silhouette_composites_silhouette_talls_100_118.png,wides_025_023,1,2,1000,1000,A,False,invalid,talls_122_127,wides_025_023,wide,wide_010,wide_013,B,tower-zipping,140,809055,0.0-140.0,trial_end,block_construction_zipping,pilot_0,61678071de3b5fb66dd56f43,6077-f23a7e61-5a66-4da1-9d16-9a0ae3df945e,incompatible,talls_122_127.png,12.0,False
116,116,616791589075de37027a1fbc,770.7000000476837,https://tower-4-block-unique-silhouettes-composite-silhouette-png.s3.amazonaws.com/tower_4_block_unique_silhouette_composites_silhouette_talls_100_118.png,z,1,https://tower-4-block-unique-silhouettes-composite-silhouette-png.s3.amazonaws.com/tower_4_block_unique_silhouette_composites_silhouette_talls_100_118.png,wides_025_023,1,2,1000,1000,A,False,invalid,talls_100_118,wides_013_010,wide,wide_025,wide_011,none,tower-zipping,141,812209,0.0-141.0,trial_end,block_construction_zipping,pilot_0,61678071de3b5fb66dd56f43,6077-f23a7e61-5a66-4da1-9d16-9a0ae3df945e,novel,talls_100_118.png,12.0,False
117,117,6167915b9075de37027a1fbd,781.7999999523163,https://tower-4-block-unique-silhouettes-composite-silhouette-png.s3.amazonaws.com/tower_4_block_unique_silhouette_composites_silhouette_talls_100_118.png,m,1,https://tower-4-block-unique-silhouettes-composite-silhouette-png.s3.amazonaws.com/tower_4_block_unique_silhouette_composites_silhouette_talls_100_118.png,wides_025_023,1,2,1000,1000,A,False,valid,talls_100_118,wides_013_010,tall,tall_100,tall_118,none,tower-zipping,142,815391,0.0-142.0,trial_end,block_construction_zipping,pilot_0,61678071de3b5fb66dd56f43,6077-f23a7e61-5a66-4da1-9d16-9a0ae3df945e,novel,talls_100_118.png,12.0,False
118,118,6167915e9075de37027a1fbe,978.2000000476837,https://tower-4-block-unique-silhouettes-composite-silhouette-png.s3.amazonaws.com/tower_4_block_unique_silhouette_composites_silhouette_talls_102_126.png,z,1,https://tower-4-block-unique-silhouettes-composite-silhouette-png.s3.amazonaws.com/tower_4_block_unique_silhouette_composites_silhouette_talls_100_118.png,wides_025_023,1,2,1000,1000,A,True,invalid,talls_102_126,wides_024_011,wide,wide_010,wide_013,A,tower-zipping,143,818804,0.0-143.0,trial_end,block_construction_zipping,pilot_0,61678071de3b5fb66dd56f43,6077-f23a7e61-5a66-4da1-9d16-9a0ae3df945e,compatible,talls_102_126.png,12.0,False
119,119,616791629075de37027a1fbf,976.0999999046326,https://tower-4-block-unique-silhouettes-composite-silhouette-png.s3.amazonaws.com/tower_4_block_unique_silhouette_composites_silhouette_talls_122_127.png,z,1,https://tower-4-block-unique-silhouettes-composite-silhouette-png.s3.amazonaws.com/tower_4_block_unique_silhouette_composites_silhouette_talls_100_118.png,wides_025_023,1,2,1000,1000,A,True,invalid,talls_122_127,wides_025_023,tall,tall_118,tall_100,A,tower-zipping,144,822184,0.0-144.0,trial_end,block_construction_zipping,pilot_0,61678071de3b5fb66dd56f43,6077-f23a7e61-5a66-4da1-9d16-9a0ae3df945e,compatible,talls_122_127.png,12.0,False
120,120,616791659075de37027a1fc0,775.0999999046326,https://tower-4-block-unique-silhouettes-composite-silhouette-png.s3.amazonaws.com/tower_4_block_unique_silhouette_composites_silhouette_talls_122_127.png,z,1,https://tower-4-block-unique-silhouettes-composite-silhouette-png.s3.amazonaws.com/tower_4_block_unique_silhouette_composites_silhouette_talls_100_118.png,wides_025_023,2,2,1000,1000,A,True,invalid,talls_122_127,wides_025_023,tall,tall_100,tall_126,A,tower-zipping,145,825357,0.0-145.0,trial_end,block_construction_zipping,pilot_0,61678071de3b5fb66dd56f43,6077-f23a7e61-5a66-4da1-9d16-9a0ae3df945e,compatible,talls_122_127.png,12.0,False
121,121,616791689075de37027a1fc1,995.0,https://tower-4-block-unique-silhouettes-composite-silhouette-png.s3.amazonaws.com/tower_4_block_unique_silhouette_composites_silhouette_talls_102_126.png,z,1,https://tower-4-block-unique-silhouettes-composite-silhouette-png.s3.amazonaws.com/tower_4_block_unique_silhouette_composites_silhouette_talls_100_118.png,wides_025_023,2,2,1000,1000,A,False,invalid,talls_102_126,wides_024_011,tall,tall_100,tall_127,B,tower-zipping,146,828749,0.0-146.0,trial_end,block_construction_zipping,pilot_0,61678071de3b5fb66dd56f43,6077-f23a7e61-5a66-4da1-9d16-9a0ae3df945e,incompatible,talls_102_126.png,12.0,False
122,122,6167916c9075de37027a1fc2,1599.8000001907349,https://tower-4-block-unique-silhouettes-composite-silhouette-png.s3.amazonaws.com/tower_4_block_unique_silhouette_composites_silhouette_talls_102_126.png,z,1,https://tower-4-block-unique-silhouettes-composite-silhouette-png.s3.amazonaws.com/tower_4_block_unique_silhouette_composites_silhouette_talls_100_118.png,wides_025_023,2,2,1000,1000,A,True,invalid,talls_102_126,wides_024_011,wide,wide_013,wide_023,A,tower-zipping,147,832762,0.0-147.0,trial_end,block_construction_zipping,pilot_0,61678071de3b5fb66dd56f43,6077-f23a7e61-5a66-4da1-9d16-9a0ae3df945e,compatible,talls_102_126.png,12.0,False
123,123,616791709075de37027a1fc3,1046.5,https://tower-4-block-unique-silhouettes-composite-silhouette-png.s3.amazonaws.com/tower_4_block_unique_silhouette_composites_silhouette_talls_122_127.png,m,1,https://tower-4-block-unique-silhouettes-composite-silhouette-png.s3.amazonaws.com/tower_4_block_unique_silhouette_composites_silhouette_talls_100_118.png,wides_025_023,2,2,1000,1000,A,True,valid,talls_122_127,wides_025_023,tall,tall_122,tall_127,A,tower-zipping,148,836159,0.0-148.0,trial_end,block_construction_zipping,pilot_0,61678071de3b5fb66dd56f43,6077-f23a7e61-5a66-4da1-9d16-9a0ae3df945e,compatible,talls_122_127.png,12.0,False
124,124,616791739075de37027a1fc4,773.3999998569489,https://tower-4-block-unique-silhouettes-composite-silhouette-png.s3.amazonaws.com/tower_4_block_unique_silhouette_composites_silhouette_talls_100_118.png,m,1,https://tower-4-block-unique-silhouettes-composite-silhouette-png.s3.amazonaws.com/tower_4_block_unique_silhouette_composites_silhouette_talls_100_118.png,wides_025_023,2,2,1000,1000,A,False,valid,talls_100_118,wides_013_010,wide,wide_013,wide_010,none,tower-zipping,149,839331,0.0-149.0,trial_end,block_construction_zipping,pilot_0,61678071de3b5fb66dd56f43,6077-f23a7e61-5a66-4da1-9d16-9a0ae3df945e,novel,talls_100_118.png,12.0,False
125,125,616791769075de37027a1fc5,973.2999999523163,https://tower-4-block-unique-silhouettes-composite-silhouette-png.s3.amazonaws.com/tower_4_block_unique_silhouette_composites_silhouette_talls_122_127.png,z,1,https://tower-4-block-unique-silhouettes-composite-silhouette-png.s3.amazonaws.com/tower_4_block_unique_silhouette_composites_silhouette_talls_100_118.png,wides_025_023,2,2,1000,1000,A,False,invalid,talls_122_127,wides_025_023,wide,wide_013,wide_011,B,tower-zipping,150,842707,0.0-150.0,trial_end,block_construction_zipping,pilot_0,61678071de3b5fb66dd56f43,6077-f23a7e61-5a66-4da1-9d16-9a0ae3df945e,incompatible,talls_122_127.png,12.0,False
126,126,6167917a9075de37027a1fc6,986.5999999046326,https://tower-4-block-unique-silhouettes-composite-silhouette-png.s3.amazonaws.com/tower_4_block_unique_silhouette_composites_silhouette_talls_100_118.png,z,1,https://tower-4-block-unique-silhouettes-composite-silhouette-png.s3.amazonaws.com/tower_4_block_unique_silhouette_composites_silhouette_talls_100_118.png,wides_025_023,2,2,1000,1000,A,False,invalid,talls_100_118,wides_013_010,tall,tall_127,tall_122,none,tower-zipping,151,846123,0.0-151.0,trial_end,block_construction_zipping,pilot_0,61678071de3b5fb66dd56f43,6077-f23a7e61-5a66-4da1-9d16-9a0ae3df945e,novel,talls_100_118.png,13.0,False
127,127,6167917d9075de37027a1fc7,843.3999998569489,https://tower-4-block-unique-silhouettes-composite-silhouette-png.s3.amazonaws.com/tower_4_block_unique_silhouette_composites_silhouette_talls_122_127.png,m,1,https://tower-4-block-unique-silhouettes-composite-silhouette-png.s3.amazonaws.com/tower_4_block_unique_silhouette_composites_silhouette_talls_100_118.png,wides_025_023,2,2,1000,1000,A,False,valid,talls_122_127,wides_025_023,wide,wide_025,wide_023,B,tower-zipping,152,849329,0.0-152.0,trial_end,block_construction_zipping,pilot_0,61678071de3b5fb66dd56f43,6077-f23a7e61-5a66-4da1-9d16-9a0ae3df945e,incompatible,talls_122_127.png,13.0,False
128,128,616791809075de37027a1fc8,1198.7000000476837,https://tower-4-block-unique-silhouettes-composite-silhouette-png.s3.amazonaws.com/tower_4_block_unique_silhouette_composites_silhouette_talls_102_126.png,m,1,https://tower-4-block-unique-silhouettes-composite-silhouette-png.s3.amazonaws.com/tower_4_block_unique_silhouette_composites_silhouette_talls_100_118.png,wides_025_023,2,2,1000,1000,A,False,valid,talls_102_126,wides_024_011,tall,tall_102,tall_126,B,tower-zipping,153,852904,0.0-153.0,trial_end,block_construction_zipping,pilot_0,61678071de3b5fb66dd56f43,6077-f23a7e61-5a66-4da1-9d16-9a0ae3df945e,incompatible,talls_102_126.png,13.0,False
129,129,616791849075de37027a1fc9,1044.0,https://tower-4-block-unique-silhouettes-composite-silhouette-png.s3.amazonaws.com/tower_4_block_unique_silhouette_composites_silhouette_talls_100_118.png,z,1,https://tower-4-block-unique-silhouettes-composite-silhouette-png.s3.amazonaws.com/tower_4_block_unique_silhouette_composites_silhouette_talls_100_118.png,wides_025_023,2,2,1000,1000,A,False,invalid,talls_100_118,wides_013_010,wide,wide_023,wide_025,none,tower-zipping,154,856271,0.0-154.0,trial_end,block_construction_zipping,pilot_0,61678071de3b5fb66dd56f43,6077-f23a7e61-5a66-4da1-9d16-9a0ae3df945e,novel,talls_100_118.png,13.0,False
130,130,616791879075de37027a1fcb,991.0,https://tower-4-block-unique-silhouettes-composite-silhouette-png.s3.amazonaws.com/tower_4_block_unique_silhouette_composites_silhouette_talls_102_126.png,m,1,https://tower-4-block-unique-silhouettes-composite-silhouette-png.s3.amazonaws.com/tower_4_block_unique_silhouette_composites_silhouette_talls_100_118.png,wides_025_023,2,2,1000,1000,A,True,valid,talls_102_126,wides_024_011,wide,wide_024,wide_011,A,tower-zipping,155,859650,0.0-155.0,trial_end,block_construction_zipping,pilot_0,61678071de3b5fb66dd56f43,6077-f23a7e61-5a66-4da1-9d16-9a0ae3df945e,compatible,talls_102_126.png,13.0,False
131,131,6167918b9075de37027a1fcc,1197.9000000953674,https://tower-4-block-unique-silhouettes-composite-silhouette-png.s3.amazonaws.com/tower_4_block_unique_silhouette_composites_silhouette_talls_100_118.png,z,0,https://tower-4-block-unique-silhouettes-composite-silhouette-png.s3.amazonaws.com/tower_4_block_unique_silhouette_composites_silhouette_talls_100_118.png,wides_025_023,2,2,1000,1000,A,False,valid,talls_100_118,wides_013_010,tall,tall_100,tall_118,none,tower-zipping,156,863259,0.0-156.0,trial_end,block_construction_zipping,pilot_0,61678071de3b5fb66dd56f43,6077-f23a7e61-5a66-4da1-9d16-9a0ae3df945e,novel,talls_100_118.png,13.0,False
132,132,6167918e9075de37027a1fcd,776.5,https://tower-4-block-unique-silhouettes-composite-silhouette-png.s3.amazonaws.com/tower_4_block_unique_silhouette_composites_silhouette_talls_102_126.png,m,1,https://tower-4-block-unique-silhouettes-composite-silhouette-png.s3.amazonaws.com/tower_4_block_unique_silhouette_composites_silhouette_talls_100_118.png,wides_025_023,3,2,1000,1000,A,True,valid,talls_102_126,wides_024_011,wide,wide_024,wide_011,A,tower-zipping,157,866458,0.0-157.0,trial_end,block_construction_zipping,pilot_0,61678071de3b5fb66dd56f43,6077-f23a7e61-5a66-4da1-9d16-9a0ae3df945e,compatible,talls_102_126.png,13.0,False
133,133,616791919075de37027a1fce,1050.7999999523163,https://tower-4-block-unique-silhouettes-composite-silhouette-png.s3.amazonaws.com/tower_4_block_unique_silhouette_composites_silhouette_talls_100_118.png,m,1,https://tower-4-block-unique-silhouettes-composite-silhouette-png.s3.amazonaws.com/tower_4_block_unique_silhouette_composites_silhouette_talls_100_118.png,wides_025_023,3,2,1000,1000,A,False,valid,talls_100_118,wides_013_010,tall,tall_100,tall_118,none,tower-zipping,158,869856,0.0-158.0,trial_end,block_construction_zipping,pilot_0,61678071de3b5fb66dd56f43,6077-f23a7e61-5a66-4da1-9d16-9a0ae3df945e,novel,talls_100_118.png,13.0,False
134,134,616791969075de37027a1fcf,2288.5999999046326,https://tower-4-block-unique-silhouettes-composite-silhouette-png.s3.amazonaws.com/tower_4_block_unique_silhouette_composites_silhouette_talls_102_126.png,z,1,https://tower-4-block-unique-silhouettes-composite-silhouette-png.s3.amazonaws.com/tower_4_block_unique_silhouette_composites_silhouette_talls_100_118.png,wides_025_023,3,2,1000,1000,A,False,invalid,talls_102_126,wides_024_011,tall,tall_122,tall_118,B,tower-zipping,159,874558,0.0-159.0,trial_end,block_construction_zipping,pilot_0,61678071de3b5fb66dd56f43,6077-f23a7e61-5a66-4da1-9d16-9a0ae3df945e,incompatible,talls_102_126.png,13.0,False
135,135,616791999075de37027a1fd0,902.7000000476837,https://tower-4-block-unique-silhouettes-composite-silhouette-png.s3.amazonaws.com/tower_4_block_unique_silhouette_composites_silhouette_talls_122_127.png,m,1,https://tower-4-block-unique-silhouettes-composite-silhouette-png.s3.amazonaws.com/tower_4_block_unique_silhouette_composites_silhouette_talls_100_118.png,wides_025_023,3,2,1000,1000,A,False,valid,talls_122_127,wides_025_023,wide,wide_025,wide_023,B,tower-zipping,160,877812,0.0-160.0,trial_end,block_construction_zipping,pilot_0,61678071de3b5fb66dd56f43,6077-f23a7e61-5a66-4da1-9d16-9a0ae3df945e,incompatible,talls_122_127.png,13.0,False
136,136,6167919d9075de37027a1fd1,1211.7000000476837,https://tower-4-block-unique-silhouettes-composite-silhouette-png.s3.amazonaws.com/tower_4_block_unique_silhouette_composites_silhouette_talls_122_127.png,z,1,https://tower-4-block-unique-silhouettes-composite-silhouette-png.s3.amazonaws.com/tower_4_block_unique_silhouette_composites_silhouette_talls_100_118.png,wides_025_023,3,2,1000,1000,A,False,invalid,talls_122_127,wides_025_023,wide,wide_024,wide_010,B,tower-zipping,161,881253,0.0-161.0,trial_end,block_construction_zipping,pilot_0,61678071de3b5fb66dd56f43,6077-f23a7e61-5a66-4da1-9d16-9a0ae3df945e,incompatible,talls_122_127.png,13.0,False
137,137,616791a09075de37027a1fd2,1199.9000000953674,https://tower-4-block-unique-silhouettes-composite-silhouette-png.s3.amazonaws.com/tower_4_block_unique_silhouette_composites_silhouette_talls_102_126.png,z,1,https://tower-4-block-unique-silhouettes-composite-silhouette-png.s3.amazonaws.com/tower_4_block_unique_silhouette_composites_silhouette_talls_100_118.png,wides_025_023,3,2,1000,1000,A,True,invalid,talls_102_126,wides_024_011,wide,wide_025,wide_010,A,tower-zipping,162,884878,0.0-162.0,trial_end,block_construction_zipping,pilot_0,61678071de3b5fb66dd56f43,6077-f23a7e61-5a66-4da1-9d16-9a0ae3df945e,compatible,talls_102_126.png,14.0,False
138,138,616791a49075de37027a1fd3,1007.8999998569489,https://tower-4-block-unique-silhouettes-composite-silhouette-png.s3.amazonaws.com/tower_4_block_unique_silhouette_composites_silhouette_talls_102_126.png,m,1,https://tower-4-block-unique-silhouettes-composite-silhouette-png.s3.amazonaws.com/tower_4_block_unique_silhouette_composites_silhouette_talls_100_118.png,wides_025_023,3,2,1000,1000,A,False,valid,talls_102_126,wides_024_011,tall,tall_102,tall_126,B,tower-zipping,163,888309,0.0-163.0,trial_end,block_construction_zipping,pilot_0,61678071de3b5fb66dd56f43,6077-f23a7e61-5a66-4da1-9d16-9a0ae3df945e,incompatible,talls_102_126.png,14.0,False
139,139,616791a79075de37027a1fd4,1210.4000000953674,https://tower-4-block-unique-silhouettes-composite-silhouette-png.s3.amazonaws.com/tower_4_block_unique_silhouette_composites_silhouette_talls_122_127.png,m,1,https://tower-4-block-unique-silhouettes-composite-silhouette-png.s3.amazonaws.com/tower_4_block_unique_silhouette_composites_silhouette_talls_100_118.png,wides_025_023,3,2,1000,1000,A,True,valid,talls_122_127,wides_025_023,tall,tall_122,tall_127,A,tower-zipping,164,891935,0.0-164.0,trial_end,block_construction_zipping,pilot_0,61678071de3b5fb66dd56f43,6077-f23a7e61-5a66-4da1-9d16-9a0ae3df945e,compatible,talls_122_127.png,14.0,False
140,140,616791ab9075de37027a1fd5,983.0,https://tower-4-block-unique-silhouettes-composite-silhouette-png.s3.amazonaws.com/tower_4_block_unique_silhouette_composites_silhouette_talls_100_118.png,z,1,https://tower-4-block-unique-silhouettes-composite-silhouette-png.s3.amazonaws.com/tower_4_block_unique_silhouette_composites_silhouette_talls_100_118.png,wides_025_023,3,2,1000,1000,A,False,invalid,talls_100_118,wides_013_010,wide,wide_011,wide_025,none,tower-zipping,165,895293,0.0-165.0,trial_end,block_construction_zipping,pilot_0,61678071de3b5fb66dd56f43,6077-f23a7e61-5a66-4da1-9d16-9a0ae3df945e,novel,talls_100_118.png,14.0,False
141,141,616791ae9075de37027a1fd6,1324.2999999523163,https://tower-4-block-unique-silhouettes-composite-silhouette-png.s3.amazonaws.com/tower_4_block_unique_silhouette_composites_silhouette_talls_100_118.png,m,0,https://tower-4-block-unique-silhouettes-composite-silhouette-png.s3.amazonaws.com/tower_4_block_unique_silhouette_composites_silhouette_talls_100_118.png,wides_025_023,3,2,1000,1000,A,False,invalid,talls_100_118,wides_013_010,tall,tall_126,tall_122,none,tower-zipping,166,898967,0.0-166.0,trial_end,block_construction_zipping,pilot_0,61678071de3b5fb66dd56f43,6077-f23a7e61-5a66-4da1-9d16-9a0ae3df945e,novel,talls_100_118.png,14.0,False
142,142,616791b29075de37027a1fd7,994.7000000476837,https://tower-4-block-unique-silhouettes-composite-silhouette-png.s3.amazonaws.com/tower_4_block_unique_silhouette_composites_silhouette_talls_122_127.png,z,1,https://tower-4-block-unique-silhouettes-composite-silhouette-png.s3.amazonaws.com/tower_4_block_unique_silhouette_composites_silhouette_talls_100_118.png,wides_025_023,3,2,1000,1000,A,True,invalid,talls_122_127,wides_025_023,tall,tall_102,tall_118,A,tower-zipping,167,902377,0.0-167.0,trial_end,block_construction_zipping,pilot_0,61678071de3b5fb66dd56f43,6077-f23a7e61-5a66-4da1-9d16-9a0ae3df945e,compatible,talls_122_127.png,14.0,False
143,143,616791b59075de37027a1fd8,809.2999999523163,https://tower-4-block-unique-silhouettes-composite-silhouette-png.s3.amazonaws.com/tower_4_block_unique_silhouette_composites_silhouette_talls_100_118.png,m,1,https://tower-4-block-unique-silhouettes-composite-silhouette-png.s3.amazonaws.com/tower_4_block_unique_silhouette_composites_silhouette_talls_100_118.png,wides_025_023,3,2,1000,1000,A,False,valid,talls_100_118,wides_013_010,wide,wide_013,wide_010,none,tower-zipping,168,905596,0.0-168.0,trial_end,block_construction_zipping,pilot_0,61678071de3b5fb66dd56f43,6077-f23a7e61-5a66-4da1-9d16-9a0ae3df945e,novel,talls_100_118.png,14.0,False
144,144,616793339075de37027a1fee,3753.60000000149,https://tower-4-block-unique-silhouettes-composite-silhouette-png.s3.amazonaws.com/tower_4_block_unique_silhouette_composites_silhouette_talls_102_126.png,z,1,https://tower-4-block-unique-silhouettes-composite-silhouette-png.s3.amazonaws.com/tower_4_block_unique_silhouette_composites_silhouette_talls_100_118.png,wides_025_023,0,0,1000,1000,B,True,invalid,talls_102_126,wides_024_011,tall,tall_100,tall_118,B,tower-zipping,21,617959,0.0-21.0,trial_end,block_construction_zipping,pilot_0,553e1a73fdf99b5bc27514ca,9790-c81a25ca-6b47-4840-895b-ed6e0f6dfef2,compatible,talls_102_126.png,2.0,False
145,145,616793399075de37027a1fef,2576.300000000745,https://tower-4-block-unique-silhouettes-composite-silhouette-png.s3.amazonaws.com/tower_4_block_unique_silhouette_composites_silhouette_talls_122_127.png,z,0,https://tower-4-block-unique-silhouettes-composite-silhouette-png.s3.amazonaws.com/tower_4_block_unique_silhouette_composites_silhouette_talls_100_118.png,wides_025_023,0,0,1000,1000,B,False,valid,talls_122_127,wides_025_023,tall,tall_122,tall_127,A,tower-zipping,22,623909,0.0-22.0,trial_end,block_construction_zipping,pilot_0,553e1a73fdf99b5bc27514ca,9790-c81a25ca-6b47-4840-895b-ed6e0f6dfef2,incompatible,talls_122_127.png,2.0,False
146,146,6167933e9075de37027a1ff0,1808.6000000014901,https://tower-4-block-unique-silhouettes-composite-silhouette-png.s3.amazonaws.com/tower_4_block_unique_silhouette_composites_silhouette_talls_100_118.png,m,0,https://tower-4-block-unique-silhouettes-composite-silhouette-png.s3.amazonaws.com/tower_4_block_unique_silhouette_composites_silhouette_talls_100_118.png,wides_025_023,0,0,1000,1000,B,False,invalid,talls_100_118,wides_013_010,tall,tall_102,tall_127,none,tower-zipping,23,629025,0.0-23.0,trial_end,block_construction_zipping,pilot_0,553e1a73fdf99b5bc27514ca,9790-c81a25ca-6b47-4840-895b-ed6e0f6dfef2,novel,talls_100_118.png,2.0,False
147,147,616793439075de37027a1ff1,1812.699999999255,https://tower-4-block-unique-silhouettes-composite-silhouette-png.s3.amazonaws.com/tower_4_block_unique_silhouette_composites_silhouette_talls_102_126.png,z,1,https://tower-4-block-unique-silhouettes-composite-silhouette-png.s3.amazonaws.com/tower_4_block_unique_silhouette_composites_silhouette_talls_100_118.png,wides_025_023,0,0,1000,1000,B,False,invalid,talls_102_126,wides_024_011,wide,wide_013,wide_010,A,tower-zipping,24,634170,0.0-24.0,trial_end,block_construction_zipping,pilot_0,553e1a73fdf99b5bc27514ca,9790-c81a25ca-6b47-4840-895b-ed6e0f6dfef2,incompatible,talls_102_126.png,2.0,False
148,148,616793489075de37027a1ff2,1855.7000000029802,https://tower-4-block-unique-silhouettes-composite-silhouette-png.s3.amazonaws.com/tower_4_block_unique_silhouette_composites_silhouette_talls_122_127.png,m,1,https://tower-4-block-unique-silhouettes-composite-silhouette-png.s3.amazonaws.com/tower_4_block_unique_silhouette_composites_silhouette_talls_100_118.png,wides_025_023,0,0,1000,1000,B,True,valid,talls_122_127,wides_025_023,wide,wide_025,wide_023,B,tower-zipping,25,639233,0.0-25.0,trial_end,block_construction_zipping,pilot_0,553e1a73fdf99b5bc27514ca,9790-c81a25ca-6b47-4840-895b-ed6e0f6dfef2,compatible,talls_122_127.png,2.0,False
149,149,6167934e9075de37027a1ff3,2500.89999999851,https://tower-4-block-unique-silhouettes-composite-silhouette-png.s3.amazonaws.com/tower_4_block_unique_silhouette_composites_silhouette_talls_100_118.png,m,1,https://tower-4-block-unique-silhouettes-composite-silhouette-png.s3.amazonaws.com/tower_4_block_unique_silhouette_composites_silhouette_talls_100_118.png,wides_025_023,0,0,1000,1000,B,False,valid,talls_100_118,wides_013_010,wide,wide_013,wide_010,none,tower-zipping,26,645040,0.0-26.0,trial_end,block_construction_zipping,pilot_0,553e1a73fdf99b5bc27514ca,9790-c81a25ca-6b47-4840-895b-ed6e0f6dfef2,novel,talls_100_118.png,2.0,False
150,150,616793549075de37027a1ff4,2494.89999999851,https://tower-4-block-unique-silhouettes-composite-silhouette-png.s3.amazonaws.com/tower_4_block_unique_silhouette_composites_silhouette_talls_122_127.png,z,1,https://tower-4-block-unique-silhouettes-composite-silhouette-png.s3.amazonaws.com/tower_4_block_unique_silhouette_composites_silhouette_talls_100_118.png,wides_025_023,0,0,1000,1000,B,False,invalid,talls_122_127,wides_025_023,tall,tall_100,tall_118,A,tower-zipping,27,650835,0.0-27.0,trial_end,block_construction_zipping,pilot_0,553e1a73fdf99b5bc27514ca,9790-c81a25ca-6b47-4840-895b-ed6e0f6dfef2,incompatible,talls_122_127.png,2.0,False
151,151,6167935a9075de37027a1ff5,2628.400000002235,https://tower-4-block-unique-silhouettes-composite-silhouette-png.s3.amazonaws.com/tower_4_block_unique_silhouette_composites_silhouette_talls_122_127.png,z,1,https://tower-4-block-unique-silhouettes-composite-silhouette-png.s3.amazonaws.com/tower_4_block_unique_silhouette_composites_silhouette_talls_100_118.png,wides_025_023,0,0,1000,1000,B,True,invalid,talls_122_127,wides_025_023,wide,wide_013,wide_010,B,tower-zipping,28,656754,0.0-28.0,trial_end,block_construction_zipping,pilot_0,553e1a73fdf99b5bc27514ca,9790-c81a25ca-6b47-4840-895b-ed6e0f6dfef2,compatible,talls_122_127.png,2.0,False
152,152,6167935f9075de37027a1ff6,1817.0,https://tower-4-block-unique-silhouettes-composite-silhouette-png.s3.amazonaws.com/tower_4_block_unique_silhouette_composites_silhouette_talls_102_126.png,m,1,https://tower-4-block-unique-silhouettes-composite-silhouette-png.s3.amazonaws.com/tower_4_block_unique_silhouette_composites_silhouette_talls_100_118.png,wides_025_023,0,0,1000,1000,B,True,valid,talls_102_126,wides_024_011,tall,tall_102,tall_126,B,tower-zipping,29,661879,0.0-29.0,trial_end,block_construction_zipping,pilot_0,553e1a73fdf99b5bc27514ca,9790-c81a25ca-6b47-4840-895b-ed6e0f6dfef2,compatible,talls_102_126.png,2.0,False
153,153,616793659075de37027a1ff7,2578.199999999255,https://tower-4-block-unique-silhouettes-composite-silhouette-png.s3.amazonaws.com/tower_4_block_unique_silhouette_composites_silhouette_talls_100_118.png,m,0,https://tower-4-block-unique-silhouettes-composite-silhouette-png.s3.amazonaws.com/tower_4_block_unique_silhouette_composites_silhouette_talls_100_118.png,wides_025_023,0,0,1000,1000,B,False,invalid,talls_100_118,wides_013_010,wide,wide_024,wide_023,none,tower-zipping,30,667707,0.0-30.0,trial_end,block_construction_zipping,pilot_0,553e1a73fdf99b5bc27514ca,9790-c81a25ca-6b47-4840-895b-ed6e0f6dfef2,novel,talls_100_118.png,2.0,False
154,154,6167936a9075de37027a1ff8,1828.5,https://tower-4-block-unique-silhouettes-composite-silhouette-png.s3.amazonaws.com/tower_4_block_unique_silhouette_composites_silhouette_talls_102_126.png,m,1,https://tower-4-block-unique-silhouettes-composite-silhouette-png.s3.amazonaws.com/tower_4_block_unique_silhouette_composites_silhouette_talls_100_118.png,wides_025_023,0,0,1000,1000,B,False,valid,talls_102_126,wides_024_011,wide,wide_024,wide_011,A,tower-zipping,31,672838,0.0-31.0,trial_end,block_construction_zipping,pilot_0,553e1a73fdf99b5bc27514ca,9790-c81a25ca-6b47-4840-895b-ed6e0f6dfef2,incompatible,talls_102_126.png,3.0,False
