,_id,trial_start_time,trial_finish_time,condition,stimulus,response,trial_num,block_str,tower_id,tower_A_tall_id,tower_A_wide_id,tower_B_tall_id,tower_B_wide_id,tower_id_tall,composite_id,trial_type,trial_index,time_elapsed,internal_node_id,experimentName,iterationName,workerID,gameID,studyLocation,datatype,timeAbsolute,timeRelative,blocks,discreteWorld,eventType,endReason,relative_time,rep,n_resets
0,640a24fd6e17e9023eee5721,1678386413398.0,1678386428422.0,view,"{'blocks': [{'x': 0, 'y': 0, 'height': 1, 'width': 2}, {'x': 1, 'y': 1, 'height': 2, 'width': 1}, {'x': 0, 'y': 3, 'height': 1, 'width': 2}, {'x': 1, 'y': 4, 'height': 2, 'width': 1}, {'x': 2, 'y': 0, 'height': 1, 'width': 2}, {'x': 2, 'y': 1, 'height': 2, 'width': 1}, {'x': 2, 'y': 3, 'height': 1, 'width': 2}, {'x': 3, 'y': 4, 'height': 2, 'width': 1}]}",,1,0000000000000000010100000101000011110000011000000110000011110000,talls_097_100,tall_097,wide_008,tall_100,wide_006,talls_097_100,talls_097_100,block-tower-viewing,3,98247,0.0-3.0,block_construction_build_components,build_components_build_recall_prolific_pilot_12_towers,63f7a2f266965681c3e47996,4135-185d04be-2d34-4e17-a047-41647095ac78,Prolific,trial_end,,,,,,,,,
1,640a25836e17e9023eee5747,1678386430051.0,,build,"{'blocks': [{'x': 1, 'y': 0, 'height': 2, 'width': 1}, {'x': 0, 'y': 2, 'height': 1, 'width': 2}, {'x': 0, 'y': 3, 'height': 2, 'width': 1}, {'x': 0, 'y': 5, 'height': 1, 'width': 2}, {'x': 2, 'y': 0, 'height': 2, 'width': 1}, {'x': 2, 'y': 2, 'height': 1, 'width': 2}, {'x': 3, 'y': 3, 'height': 2, 'width': 1}, {'x': 2, 'y': 5, 'height': 1, 'width': 2}]}",,2,0000000000000000111100001001000010010000111100000110000001100000,talls_126_122,tall_126,wide_023,tall_122,wide_024,talls_126_122,talls_126_122,block-tower-building-undo,4,232201,0.0-4.0,block_construction_build_components,build_components_build_recall_prolific_pilot_12_towers,63f7a2f266965681c3e47996,4135-185d04be-2d34-4e17-a047-41647095ac78,Prolific,trial_end,1678386559373.0,228810.0,"[{'x': 5, 'y': 0, 'width': 1, 'height': 2}, {'x': 6, 'y': 0, 'width': 1, 'height': 2}, {'x': 6, 'y': 2, 'width': 2, 'height': 1}, {'x': 4, 'y': 2, 'width': 2, 'height': 1}, {'x': 4, 'y': 3, 'width': 1, 'height': 2}, {'x': 7, 'y': 3, 'width': 1, 'height': 2}, {'x': 4, 'y': 5, 'width': 2, 'height': 1}, {'x': 6, 'y': 5, 'width': 2, 'height': 1}]","[[True, True, True, True, True, True, True, True, True, True], [True, True, True, True, True, True, True, True, True, True], [True, True, True, True, True, True, True, True, True, True], [True, True, True, True, True, True, True, True, True, True], [True, True, False, False, False, False, True, True, True, True], [False, False, False, True, True, False, True, True, True, True], [False, False, False, True, True, False, True, True, True, True], [True, True, False, False, False, False, True, True, True, True], [True, True, True, True, True, True, True, True, True, True], [True, True, True, True, True, True, True, True, True, True], [True, True, True, True, True, True, True, True, True, True], [True, True, True, True, True, True, True, True, True, True]]",trial_end,perfect-reconstruction-translation,129322.0,0.0,2.0
2,640a25936e17e9023eee574a,1678386563991.0,1678386578996.0,view,"{'blocks': [{'x': 0, 'y': 0, 'height': 1, 'width': 2}, {'x': 0, 'y': 1, 'height': 2, 'width': 1}, {'x': 0, 'y': 3, 'height': 1, 'width': 2}, {'x': 1, 'y': 4, 'height': 2, 'width': 1}, {'x': 2, 'y': 0, 'height': 1, 'width': 2}, {'x': 2, 'y': 1, 'height': 2, 'width': 1}, {'x': 2, 'y': 3, 'height': 2, 'width': 1}, {'x': 2, 'y': 5, 'height': 1, 'width': 2}]}",,3,0000000000000000011100000110000011100000101000001010000011110000,talls_100_125,tall_100,wide_014,tall_125,wide_011,talls_100_125,talls_100_125,block-tower-viewing,5,248810,0.0-5.0,block_construction_build_components,build_components_build_recall_prolific_pilot_12_towers,63f7a2f266965681c3e47996,4135-185d04be-2d34-4e17-a047-41647095ac78,Prolific,trial_end,,,,,,,,,
3,640a25ae6e17e9023eee576a,1678386580609.0,,build,"{'blocks': [{'x': 0, 'y': 0, 'height': 1, 'width': 2}, {'x': 0, 'y': 1, 'height': 2, 'width': 1}, {'x': 0, 'y': 3, 'height': 1, 'width': 2}, {'x': 0, 'y': 4, 'height': 2, 'width': 1}, {'x': 2, 'y': 0, 'height': 1, 'width': 2}, {'x': 3, 'y': 1, 'height': 2, 'width': 1}, {'x': 2, 'y': 3, 'height': 1, 'width': 2}, {'x': 2, 'y': 4, 'height': 2, 'width': 1}]}",,4,0000000000000000101000001010000011110000100100001001000011110000,talls_114_111,tall_114,wide_013,tall_111,wide_014,talls_114_111,talls_114_111,block-tower-building-undo,6,274826,0.0-6.0,block_construction_build_components,build_components_build_recall_prolific_pilot_12_towers,63f7a2f266965681c3e47996,4135-185d04be-2d34-4e17-a047-41647095ac78,Prolific,trial_end,1678386601900.0,271337.0,"[{'x': 4, 'y': 0, 'width': 2, 'height': 1}, {'x': 6, 'y': 0, 'width': 2, 'height': 1}, {'x': 4, 'y': 1, 'width': 1, 'height': 2}, {'x': 7, 'y': 1, 'width': 1, 'height': 2}, {'x': 4, 'y': 3, 'width': 2, 'height': 1}, {'x': 6, 'y': 3, 'width': 2, 'height': 1}, {'x': 6, 'y': 4, 'width': 1, 'height': 2}, {'x': 4, 'y': 4, 'width': 1, 'height': 2}]","[[True, True, True, True, True, True, True, True, True, True], [True, True, True, True, True, True, True, True, True, True], [True, True, True, True, True, True, True, True, True, True], [True, True, True, True, True, True, True, True, True, True], [False, False, False, False, False, False, True, True, True, True], [False, True, True, False, True, True, True, True, True, True], [False, True, True, False, False, False, True, True, True, True], [False, False, False, False, True, True, True, True, True, True], [True, True, True, True, True, True, True, True, True, True], [True, True, True, True, True, True, True, True, True, True], [True, True, True, True, True, True, True, True, True, True], [True, True, True, True, True, True, True, True, True, True]]",trial_end,perfect-reconstruction-translation,21291.0,0.0,0.0
4,640a25c46e17e9023eee5783,1678386797224.0,,build,"{'blocks': [{'x': 0, 'y': 0, 'height': 1, 'width': 2}, {'x': 1, 'y': 1, 'height': 2, 'width': 1}, {'x': 0, 'y': 3, 'height': 1, 'width': 2}, {'x': 0, 'y': 4, 'height': 2, 'width': 1}, {'x': 2, 'y': 0, 'height': 1, 'width': 2}, {'x': 2, 'y': 1, 'height': 2, 'width': 1}, {'x': 2, 'y': 3, 'height': 2, 'width': 1}, {'x': 2, 'y': 5, 'height': 1, 'width': 2}]}",,1,0000000000000000101100001010000011100000011000000110000011110000,talls_111_125,tall_111,wide_008,tall_125,wide_015,talls_111_125,talls_111_125,block-tower-building-undo,3,108241,0.0-3.0,block_construction_build_components,build_components_build_recall_prolific_pilot_12_towers,6283d89bcd079ca335fc8fb3,1472-558fdf95-c29d-4bf6-baab-a1d63e555440,Prolific,trial_end,1678386839094.0,105138.0,"[{'x': 3, 'y': 0, 'width': 2, 'height': 1}, {'x': 5, 'y': 0, 'width': 2, 'height': 1}, {'x': 4, 'y': 1, 'width': 1, 'height': 2}, {'x': 5, 'y': 1, 'width': 1, 'height': 2}, {'x': 3, 'y': 3, 'width': 2, 'height': 1}, {'x': 3, 'y': 4, 'width': 1, 'height': 2}, {'x': 5, 'y': 3, 'width': 1, 'height': 2}, {'x': 5, 'y': 5, 'width': 2, 'height': 1}]","[[True, True, True, True, True, True, True, True, True, True], [True, True, True, True, True, True, True, True, True, True], [True, True, True, True, True, True, True, True, True, True], [False, True, True, False, False, False, True, True, True, True], [False, False, False, False, True, True, True, True, True, True], [False, False, False, False, False, False, True, True, True, True], [False, True, True, True, True, False, True, True, True, True], [True, True, True, True, True, True, True, True, True, True], [True, True, True, True, True, True, True, True, True, True], [True, True, True, True, True, True, True, True, True, True], [True, True, True, True, True, True, True, True, True, True], [True, True, True, True, True, True, True, True, True, True]]",trial_end,perfect-reconstruction-translation,41874.0,0.0,0.0
5,640a25ce6e17e9023eee578e,1678386589985.0,,build,"{'blocks': [{'x': 0, 'y': 0, 'height': 2, 'width': 1}, {'x': 0, 'y': 2, 'height': 1, 'width': 2}, {'x': 0, 'y': 3, 'height': 1, 'width': 2}, {'x': 1, 'y': 4, 'height': 2, 'width': 1}, {'x': 3, 'y': 0, 'height': 2, 'width': 1}, {'x': 2, 'y': 2, 'height': 1, 'width': 2}, {'x': 2, 'y': 3, 'height': 2, 'width': 1}, {'x': 2, 'y': 5, 'height': 1, 'width': 2}]}",,1,0000000000000000011100000110000011100000111100001001000010010000,talls_102_126,tall_102,wide_024,tall_126,wide_011,talls_102_126,talls_102_126,block-tower-building-undo,3,131607,0.0-3.0,block_construction_build_components,build_components_build_recall_prolific_pilot_12_towers,63d8c185bbfa79d8246dd97b,9859-823f22f6-687e-4b0a-8708-001b2c27c127,Prolific,trial_end,1678386634693.0,128471.0,"[{'x': 3, 'y': 0, 'width': 1, 'height': 2}, {'x': 3, 'y': 2, 'width': 2, 'height': 1}, {'x': 3, 'y': 3, 'width': 2, 'height': 1}, {'x': 6, 'y': 0, 'width': 1, 'height': 2}, {'x': 5, 'y': 2, 'width': 2, 'height': 1}, {'x': 5, 'y': 3, 'width': 1, 'height': 2}, {'x': 4, 'y': 4, 'width': 1, 'height': 2}, {'x': 5, 'y': 5, 'width': 2, 'height': 1}]","[[True, True, True, True, True, True, True, True, True, True], [True, True, True, True, True, True, True, True, True, True], [True, True, True, True, True, True, True, True, True, True], [False, False, False, False, True, True, True, True, True, True], [True, True, False, False, False, False, True, True, True, True], [True, True, False, False, False, False, True, True, True, True], [False, False, False, True, True, False, True, True, True, True], [True, True, True, True, True, True, True, True, True, True], [True, True, True, True, True, True, True, True, True, True], [True, True, True, True, True, True, True, True, True, True], [True, True, True, True, True, True, True, True, True, True], [True, True, True, True, True, True, True, True, True, True]]",trial_end,perfect-reconstruction-translation,44709.0,0.0,1.0
6,640a25d26e17e9023eee5791,1678386606663.0,,build,"{'blocks': [{'x': 0, 'y': 0, 'height': 1, 'width': 2}, {'x': 1, 'y': 1, 'height': 2, 'width': 1}, {'x': 0, 'y': 3, 'height': 1, 'width': 2}, {'x': 0, 'y': 4, 'height': 2, 'width': 1}, {'x': 2, 'y': 0, 'height': 1, 'width': 2}, {'x': 2, 'y': 1, 'height': 2, 'width': 1}, {'x': 2, 'y': 3, 'height': 2, 'width': 1}, {'x': 2, 'y': 5, 'height': 1, 'width': 2}]}",,5,0000000000000000101100001010000011100000011000000110000011110000,talls_111_125,tall_111,wide_008,tall_125,wide_015,talls_111_125,talls_111_125,block-tower-building-undo,7,310898,0.0-7.0,block_construction_build_components,build_components_build_recall_prolific_pilot_12_towers,63f7a2f266965681c3e47996,4135-185d04be-2d34-4e17-a047-41647095ac78,Prolific,trial_end,1678386637955.0,307392.0,"[{'x': 4, 'y': 0, 'width': 2, 'height': 1}, {'x': 6, 'y': 0, 'width': 2, 'height': 1}, {'x': 5, 'y': 1, 'width': 1, 'height': 2}, {'x': 6, 'y': 1, 'width': 1, 'height': 2}, {'x': 4, 'y': 3, 'width': 2, 'height': 1}, {'x': 4, 'y': 4, 'width': 1, 'height': 2}, {'x': 6, 'y': 3, 'width': 1, 'height': 2}, {'x': 6, 'y': 5, 'width': 2, 'height': 1}]","[[True, True, True, True, True, True, True, True, True, True], [True, True, True, True, True, True, True, True, True, True], [True, True, True, True, True, True, True, True, True, True], [True, True, True, True, True, True, True, True, True, True], [False, True, True, False, False, False, True, True, True, True], [False, False, False, False, True, True, True, True, True, True], [False, False, False, False, False, False, True, True, True, True], [False, True, True, True, True, False, True, True, True, True], [True, True, True, True, True, True, True, True, True, True], [True, True, True, True, True, True, True, True, True, True], [True, True, True, True, True, True, True, True, True, True], [True, True, True, True, True, True, True, True, True, True]]",trial_end,perfect-reconstruction-translation,31292.0,0.0,0.0
7,640a25d46e17e9023eee5793,1678386843762.0,1678386858805.0,view,"{'blocks': [{'x': 1, 'y': 0, 'height': 2, 'width': 1}, {'x': 0, 'y': 2, 'height': 1, 'width': 2}, {'x': 1, 'y': 3, 'height': 2, 'width': 1}, {'x': 0, 'y': 5, 'height': 1, 'width': 2}, {'x': 2, 'y': 0, 'height': 1, 'width': 2}, {'x': 3, 'y': 1, 'height': 2, 'width': 1}, {'x': 3, 'y': 3, 'height': 2, 'width': 1}, {'x': 2, 'y': 5, 'height': 1, 'width': 2}]}",,2,0000000000000000111100000101000001010000110100000101000001110000,talls_121_118,tall_121,wide_018,tall_118,wide_022,talls_121_118,talls_121_118,block-tower-viewing,4,124920,0.0-4.0,block_construction_build_components,build_components_build_recall_prolific_pilot_12_towers,6283d89bcd079ca335fc8fb3,1472-558fdf95-c29d-4bf6-baab-a1d63e555440,Prolific,trial_end,,,,,,,,,
8,640a25d66e17e9023eee5794,1678386531815.0,,build,"{'blocks': [{'x': 0, 'y': 0, 'height': 1, 'width': 2}, {'x': 0, 'y': 1, 'height': 2, 'width': 1}, {'x': 0, 'y': 3, 'height': 1, 'width': 2}, {'x': 1, 'y': 4, 'height': 2, 'width': 1}, {'x': 2, 'y': 0, 'height': 2, 'width': 1}, {'x': 2, 'y': 2, 'height': 1, 'width': 2}, {'x': 3, 'y': 3, 'height': 2, 'width': 1}, {'x': 2, 'y': 5, 'height': 1, 'width': 2}]}",,1,0000000000000000011100000101000011010000101100001010000011100000,talls_100_122,tall_100,wide_015,tall_122,wide_010,talls_100_122,talls_100_122,block-tower-building-undo,3,190718,0.0-3.0,block_construction_build_components,build_components_build_recall_prolific_pilot_12_towers,6394c4a71be9ebcc632f18f1,1285-e4a57d43-41b7-4ca8-a339-8d2c54ee08c0,Prolific,trial_end,1678386642305.0,187813.0,"[{'x': 5, 'y': 0, 'width': 2, 'height': 1}, {'x': 7, 'y': 0, 'width': 1, 'height': 2}, {'x': 7, 'y': 2, 'width': 2, 'height': 1}, {'x': 5, 'y': 1, 'width': 1, 'height': 2}, {'x': 5, 'y': 3, 'width': 2, 'height': 1}, {'x': 8, 'y': 3, 'width': 1, 'height': 2}, {'x': 7, 'y': 5, 'width': 2, 'height': 1}, {'x': 6, 'y': 4, 'width': 1, 'height': 2}]","[[True, True, True, True, True, True, True, True, True, True], [True, True, True, True, True, True, True, True, True, True], [True, True, True, True, True, True, True, True, True, True], [True, True, True, True, True, True, True, True, True, True], [True, True, True, True, True, True, True, True, True, True], [False, False, False, False, True, True, True, True, True, True], [False, True, True, False, False, False, True, True, True, True], [False, False, False, True, True, False, True, True, True, True], [True, True, False, False, False, False, True, True, True, True], [True, True, True, True, True, True, True, True, True, True], [True, True, True, True, True, True, True, True, True, True], [True, True, True, True, True, True, True, True, True, True]]",trial_end,perfect-reconstruction-translation,110492.0,0.0,1.0
9,640a25de6e17e9023eee5797,1678386639306.0,1678386654323.0,view,"{'blocks': [{'x': 0, 'y': 0, 'height': 1, 'width': 2}, {'x': 1, 'y': 1, 'height': 2, 'width': 1}, {'x': 0, 'y': 3, 'height': 1, 'width': 2}, {'x': 0, 'y': 4, 'height': 2, 'width': 1}, {'x': 2, 'y': 0, 'height': 2, 'width': 1}, {'x': 2, 'y': 2, 'height': 1, 'width': 2}, {'x': 2, 'y': 3, 'height': 2, 'width': 1}, {'x': 2, 'y': 5, 'height': 1, 'width': 2}]}",,2,0000000000000000101100001010000011100000011100000110000011100000,talls_111_127,tall_111,wide_011,tall_127,wide_015,talls_111_127,talls_111_127,block-tower-viewing,4,148233,0.0-4.0,block_construction_build_components,build_components_build_recall_prolific_pilot_12_towers,63d8c185bbfa79d8246dd97b,9859-823f22f6-687e-4b0a-8708-001b2c27c127,Prolific,trial_end,,,,,,,,,
10,640a25e26e17e9023eee5798,1678386642745.0,1678386657798.0,view,"{'blocks': [{'x': 0, 'y': 0, 'height': 2, 'width': 1}, {'x': 0, 'y': 2, 'height': 1, 'width': 2}, {'x': 0, 'y': 3, 'height': 2, 'width': 1}, {'x': 0, 'y': 5, 'height': 1, 'width': 2}, {'x': 2, 'y': 0, 'height': 1, 'width': 2}, {'x': 2, 'y': 1, 'height': 2, 'width': 1}, {'x': 2, 'y': 3, 'height': 2, 'width': 1}, {'x': 2, 'y': 5, 'height': 1, 'width': 2}]}",,6,0000000000000000111100001010000010100000111000001010000010110000,talls_127_125,tall_127,wide_020,tall_125,wide_025,talls_127_125,talls_127_125,block-tower-viewing,8,327658,0.0-8.0,block_construction_build_components,build_components_build_recall_prolific_pilot_12_towers,63f7a2f266965681c3e47996,4135-185d04be-2d34-4e17-a047-41647095ac78,Prolific,trial_end,,,,,,,,,
11,640a25e56e17e9023eee579b,1678386860450.0,1678386875494.0,view,"{'blocks': [{'x': 0, 'y': 0, 'height': 2, 'width': 1}, {'x': 0, 'y': 2, 'height': 1, 'width': 2}, {'x': 0, 'y': 3, 'height': 1, 'width': 2}, {'x': 1, 'y': 4, 'height': 2, 'width': 1}, {'x': 3, 'y': 0, 'height': 2, 'width': 1}, {'x': 2, 'y': 2, 'height': 1, 'width': 2}, {'x': 2, 'y': 3, 'height': 2, 'width': 1}, {'x': 2, 'y': 5, 'height': 1, 'width': 2}]}",,3,0000000000000000011100000110000011100000111100001001000010010000,talls_102_126,tall_102,wide_024,tall_126,wide_011,talls_102_126,talls_102_126,block-tower-viewing,5,141618,0.0-5.0,block_construction_build_components,build_components_build_recall_prolific_pilot_12_towers,6283d89bcd079ca335fc8fb3,1472-558fdf95-c29d-4bf6-baab-a1d63e555440,Prolific,trial_end,,,,,,,,,
12,640a25ef6e17e9023eee57a0,1678386655932.0,1678386670944.0,view,"{'blocks': [{'x': 1, 'y': 0, 'height': 2, 'width': 1}, {'x': 0, 'y': 2, 'height': 1, 'width': 2}, {'x': 1, 'y': 3, 'height': 2, 'width': 1}, {'x': 0, 'y': 5, 'height': 1, 'width': 2}, {'x': 2, 'y': 0, 'height': 1, 'width': 2}, {'x': 3, 'y': 1, 'height': 2, 'width': 1}, {'x': 3, 'y': 3, 'height': 2, 'width': 1}, {'x': 2, 'y': 5, 'height': 1, 'width': 2}]}",,3,0000000000000000111100000101000001010000110100000101000001110000,talls_121_118,tall_121,wide_018,tall_118,wide_022,talls_121_118,talls_121_118,block-tower-viewing,5,164854,0.0-5.0,block_construction_build_components,build_components_build_recall_prolific_pilot_12_towers,63d8c185bbfa79d8246dd97b,9859-823f22f6-687e-4b0a-8708-001b2c27c127,Prolific,trial_end,,,,,,,,,
13,640a25f36e17e9023eee57a5,1678386659466.0,1678386674497.0,view,"{'blocks': [{'x': 0, 'y': 0, 'height': 2, 'width': 1}, {'x': 0, 'y': 2, 'height': 1, 'width': 2}, {'x': 0, 'y': 3, 'height': 1, 'width': 2}, {'x': 0, 'y': 4, 'height': 2, 'width': 1}, {'x': 2, 'y': 0, 'height': 1, 'width': 2}, {'x': 2, 'y': 1, 'height': 2, 'width': 1}, {'x': 2, 'y': 3, 'height': 1, 'width': 2}, {'x': 2, 'y': 4, 'height': 2, 'width': 1}]}",,7,0000000000000000101000001010000011110000111000001010000010110000,talls_116_114,tall_116,wide_020,tall_114,wide_014,talls_116_114,talls_116_114,block-tower-viewing,9,344391,0.0-9.0,block_construction_build_components,build_components_build_recall_prolific_pilot_12_towers,63f7a2f266965681c3e47996,4135-185d04be-2d34-4e17-a047-41647095ac78,Prolific,trial_end,,,,,,,,,
14,640a25ff6e17e9023eee57b4,1678386877160.0,,build,"{'blocks': [{'x': 0, 'y': 0, 'height': 1, 'width': 2}, {'x': 0, 'y': 1, 'height': 2, 'width': 1}, {'x': 0, 'y': 3, 'height': 1, 'width': 2}, {'x': 0, 'y': 4, 'height': 2, 'width': 1}, {'x': 2, 'y': 0, 'height': 1, 'width': 2}, {'x': 3, 'y': 1, 'height': 2, 'width': 1}, {'x': 2, 'y': 3, 'height': 1, 'width': 2}, {'x': 2, 'y': 4, 'height': 2, 'width': 1}]}",,4,0000000000000000101000001010000011110000100100001001000011110000,talls_114_111,tall_114,wide_013,tall_111,wide_014,talls_114_111,talls_114_111,block-tower-building-undo,6,167477,0.0-6.0,block_construction_build_components,build_components_build_recall_prolific_pilot_12_towers,6283d89bcd079ca335fc8fb3,1472-558fdf95-c29d-4bf6-baab-a1d63e555440,Prolific,trial_end,1678386898250.0,164294.0,"[{'x': 3, 'y': 0, 'width': 2, 'height': 1}, {'x': 5, 'y': 0, 'width': 2, 'height': 1}, {'x': 3, 'y': 1, 'width': 1, 'height': 2}, {'x': 6, 'y': 1, 'width': 1, 'height': 2}, {'x': 5, 'y': 3, 'width': 2, 'height': 1}, {'x': 3, 'y': 3, 'width': 2, 'height': 1}, {'x': 3, 'y': 4, 'width': 1, 'height': 2}, {'x': 5, 'y': 4, 'width': 1, 'height': 2}]","[[True, True, True, True, True, True, True, True, True, True], [True, True, True, True, True, True, True, True, True, True], [True, True, True, True, True, True, True, True, True, True], [False, False, False, False, False, False, True, True, True, True], [False, True, True, False, True, True, True, True, True, True], [False, True, True, False, False, False, True, True, True, True], [False, False, False, False, True, True, True, True, True, True], [True, True, True, True, True, True, True, True, True, True], [True, True, True, True, True, True, True, True, True, True], [True, True, True, True, True, True, True, True, True, True], [True, True, True, True, True, True, True, True, True, True], [True, True, True, True, True, True, True, True, True, True]]",trial_end,perfect-reconstruction-translation,21092.0,0.0,0.0
15,640a26146e17e9023eee57d7,1678386672553.0,,build,"{'blocks': [{'x': 0, 'y': 0, 'height': 1, 'width': 2}, {'x': 0, 'y': 1, 'height': 2, 'width': 1}, {'x': 0, 'y': 3, 'height': 1, 'width': 2}, {'x': 0, 'y': 4, 'height': 2, 'width': 1}, {'x': 2, 'y': 0, 'height': 1, 'width': 2}, {'x': 3, 'y': 1, 'height': 2, 'width': 1}, {'x': 2, 'y': 3, 'height': 1, 'width': 2}, {'x': 2, 'y': 4, 'height': 2, 'width': 1}]}",,4,0000000000000000101000001010000011110000100100001001000011110000,talls_114_111,tall_114,wide_013,tall_111,wide_014,talls_114_111,talls_114_111,block-tower-building-undo,6,201426,0.0-6.0,block_construction_build_components,build_components_build_recall_prolific_pilot_12_towers,63d8c185bbfa79d8246dd97b,9859-823f22f6-687e-4b0a-8708-001b2c27c127,Prolific,trial_end,1678386704484.0,198262.0,"[{'x': 3, 'y': 0, 'width': 2, 'height': 1}, {'x': 5, 'y': 0, 'width': 2, 'height': 1}, {'x': 3, 'y': 1, 'width': 1, 'height': 2}, {'x': 6, 'y': 1, 'width': 1, 'height': 2}, {'x': 5, 'y': 3, 'width': 2, 'height': 1}, {'x': 3, 'y': 3, 'width': 2, 'height': 1}, {'x': 3, 'y': 4, 'width': 1, 'height': 2}, {'x': 5, 'y': 4, 'width': 1, 'height': 2}]","[[True, True, True, True, True, True, True, True, True, True], [True, True, True, True, True, True, True, True, True, True], [True, True, True, True, True, True, True, True, True, True], [False, False, False, False, False, False, True, True, True, True], [False, True, True, False, True, True, True, True, True, True], [False, True, True, False, False, False, True, True, True, True], [False, False, False, False, True, True, True, True, True, True], [True, True, True, True, True, True, True, True, True, True], [True, True, True, True, True, True, True, True, True, True], [True, True, True, True, True, True, True, True, True, True], [True, True, True, True, True, True, True, True, True, True], [True, True, True, True, True, True, True, True, True, True]]",trial_end,perfect-reconstruction-translation,31932.0,0.0,1.0
16,640a26296e17e9023eee57f0,1678386903050.0,,build,"{'blocks': [{'x': 0, 'y': 0, 'height': 1, 'width': 2}, {'x': 1, 'y': 1, 'height': 2, 'width': 1}, {'x': 0, 'y': 3, 'height': 1, 'width': 2}, {'x': 1, 'y': 4, 'height': 2, 'width': 1}, {'x': 2, 'y': 0, 'height': 1, 'width': 2}, {'x': 3, 'y': 1, 'height': 2, 'width': 1}, {'x': 3, 'y': 3, 'height': 2, 'width': 1}, {'x': 2, 'y': 5, 'height': 1, 'width': 2}]}",,5,0000000000000000011100000101000011010000010100000101000011110000,talls_097_118,tall_097,wide_006,tall_118,wide_010,talls_097_118,talls_097_118,block-tower-building-undo,7,209541,0.0-7.0,block_construction_build_components,build_components_build_recall_prolific_pilot_12_towers,6283d89bcd079ca335fc8fb3,1472-558fdf95-c29d-4bf6-baab-a1d63e555440,Prolific,trial_end,1678386940298.0,206342.0,"[{'x': 3, 'y': 0, 'width': 2, 'height': 1}, {'x': 5, 'y': 0, 'width': 2, 'height': 1}, {'x': 4, 'y': 1, 'width': 1, 'height': 2}, {'x': 6, 'y': 1, 'width': 1, 'height': 2}, {'x': 6, 'y': 3, 'width': 1, 'height': 2}, {'x': 5, 'y': 5, 'width': 2, 'height': 1}, {'x': 3, 'y': 3, 'width': 2, 'height': 1}, {'x': 4, 'y': 4, 'width': 1, 'height': 2}]","[[True, True, True, True, True, True, True, True, True, True], [True, True, True, True, True, True, True, True, True, True], [True, True, True, True, True, True, True, True, True, True], [False, True, True, False, True, True, True, True, True, True], [False, False, False, False, False, False, True, True, True, True], [False, True, True, True, True, False, True, True, True, True], [False, False, False, False, False, False, True, True, True, True], [True, True, True, True, True, True, True, True, True, True], [True, True, True, True, True, True, True, True, True, True], [True, True, True, True, True, True, True, True, True, True], [True, True, True, True, True, True, True, True, True, True], [True, True, True, True, True, True, True, True, True, True]]",trial_end,perfect-reconstruction-translation,37250.0,0.0,0.0
17,640a262c6e17e9023eee57f4,1678386581546.0,,build,"{'blocks': [{'x': 0, 'y': 0, 'height': 1, 'width': 2}, {'x': 1, 'y': 1, 'height': 2, 'width': 1}, {'x': 0, 'y': 3, 'height': 1, 'width': 2}, {'x': 1, 'y': 4, 'height': 2, 'width': 1}, {'x': 2, 'y': 0, 'height': 1, 'width': 2}, {'x': 3, 'y': 1, 'height': 2, 'width': 1}, {'x': 3, 'y': 3, 'height': 2, 'width': 1}, {'x': 2, 'y': 5, 'height': 1, 'width': 2}]}",,1,0000000000000000011100000101000011010000010100000101000011110000,talls_097_118,tall_097,wide_006,tall_118,wide_010,talls_097_118,talls_097_118,block-tower-building-undo,3,342603,0.0-3.0,block_construction_build_components,build_components_build_recall_prolific_pilot_12_towers,5aa0594cb5e2110001c70131,7455-c0152c2e-dbcb-40bf-9a61-b5ee8747935e,Prolific,trial_end,1678386728278.0,340277.0,"[{'x': 6, 'y': 0, 'width': 2, 'height': 1}, {'x': 4, 'y': 0, 'width': 2, 'height': 1}, {'x': 7, 'y': 1, 'width': 1, 'height': 2}, {'x': 7, 'y': 3, 'width': 1, 'height': 2}, {'x': 6, 'y': 5, 'width': 2, 'height': 1}, {'x': 5, 'y': 1, 'width': 1, 'height': 2}, {'x': 4, 'y': 3, 'width': 2, 'height': 1}, {'x': 5, 'y': 4, 'width': 1, 'height': 2}]","[[True, True, True, True, True, True, True, True, True, True], [True, True, True, True, True, True, True, True, True, True], [True, True, True, True, True, True, True, True, True, True], [True, True, True, True, True, True, True, True, True, True], [False, True, True, False, True, True, True, True, True, True], [False, False, False, False, False, False, True, True, True, True], [False, True, True, True, True, False, True, True, True, True], [False, False, False, False, False, False, True, True, True, True], [True, True, True, True, True, True, True, True, True, True], [True, True, True, True, True, True, True, True, True, True], [True, True, True, True, True, True, True, True, True, True], [True, True, True, True, True, True, True, True, True, True]]",trial_end,perfect-reconstruction-translation,146733.0,0.0,1.0
18,640a26346e17e9023eee57fe,1678386709153.0,,build,"{'blocks': [{'x': 0, 'y': 0, 'height': 1, 'width': 2}, {'x': 1, 'y': 1, 'height': 2, 'width': 1}, {'x': 0, 'y': 3, 'height': 1, 'width': 2}, {'x': 1, 'y': 4, 'height': 2, 'width': 1}, {'x': 2, 'y': 0, 'height': 1, 'width': 2}, {'x': 3, 'y': 1, 'height': 2, 'width': 1}, {'x': 3, 'y': 3, 'height': 2, 'width': 1}, {'x': 2, 'y': 5, 'height': 1, 'width': 2}]}",,5,0000000000000000011100000101000011010000010100000101000011110000,talls_097_118,tall_097,wide_006,tall_118,wide_010,talls_097_118,talls_097_118,block-tower-building-undo,7,233409,0.0-7.0,block_construction_build_components,build_components_build_recall_prolific_pilot_12_towers,63d8c185bbfa79d8246dd97b,9859-823f22f6-687e-4b0a-8708-001b2c27c127,Prolific,trial_end,1678386736435.0,230213.0,"[{'x': 4, 'y': 0, 'width': 2, 'height': 1}, {'x': 6, 'y': 0, 'width': 2, 'height': 1}, {'x': 5, 'y': 1, 'width': 1, 'height': 2}, {'x': 4, 'y': 3, 'width': 2, 'height': 1}, {'x': 5, 'y': 4, 'width': 1, 'height': 2}, {'x': 7, 'y': 1, 'width': 1, 'height': 2}, {'x': 7, 'y': 3, 'width': 1, 'height': 2}, {'x': 6, 'y': 5, 'width': 2, 'height': 1}]","[[True, True, True, True, True, True, True, True, True, True], [True, True, True, True, True, True, True, True, True, True], [True, True, True, True, True, True, True, True, True, True], [True, True, True, True, True, True, True, True, True, True], [False, True, True, False, True, True, True, True, True, True], [False, False, False, False, False, False, True, True, True, True], [False, True, True, True, True, False, True, True, True, True], [False, False, False, False, False, False, True, True, True, True], [True, True, True, True, True, True, True, True, True, True], [True, True, True, True, True, True, True, True, True, True], [True, True, True, True, True, True, True, True, True, True], [True, True, True, True, True, True, True, True, True, True]]",trial_end,perfect-reconstruction-translation,27283.0,0.0,0.0
19,640a263d6e17e9023eee5804,1678386732889.0,1678386747907.0,view,"{'blocks': [{'x': 0, 'y': 0, 'height': 2, 'width': 1}, {'x': 0, 'y': 2, 'height': 1, 'width': 2}, {'x': 0, 'y': 3, 'height': 1, 'width': 2}, {'x': 0, 'y': 4, 'height': 2, 'width': 1}, {'x': 2, 'y': 0, 'height': 1, 'width': 2}, {'x': 2, 'y': 1, 'height': 2, 'width': 1}, {'x': 2, 'y': 3, 'height': 1, 'width': 2}, {'x': 2, 'y': 4, 'height': 2, 'width': 1}]}",,2,0000000000000000101000001010000011110000111000001010000010110000,talls_116_114,tall_116,wide_020,tall_114,wide_014,talls_116_114,talls_116_114,block-tower-viewing,4,359224,0.0-4.0,block_construction_build_components,build_components_build_recall_prolific_pilot_12_towers,5aa0594cb5e2110001c70131,7455-c0152c2e-dbcb-40bf-9a61-b5ee8747935e,Prolific,trial_end,,,,,,,,,
20,640a26446e17e9023eee5807,1678386741139.0,1678386756188.0,view,"{'blocks': [{'x': 0, 'y': 0, 'height': 1, 'width': 2}, {'x': 0, 'y': 1, 'height': 2, 'width': 1}, {'x': 0, 'y': 3, 'height': 1, 'width': 2}, {'x': 1, 'y': 4, 'height': 2, 'width': 1}, {'x': 2, 'y': 0, 'height': 2, 'width': 1}, {'x': 2, 'y': 2, 'height': 1, 'width': 2}, {'x': 3, 'y': 3, 'height': 2, 'width': 1}, {'x': 2, 'y': 5, 'height': 1, 'width': 2}]}",,6,0000000000000000011100000101000011010000101100001010000011100000,talls_100_122,tall_100,wide_015,tall_122,wide_010,talls_100_122,talls_100_122,block-tower-viewing,8,250129,0.0-8.0,block_construction_build_components,build_components_build_recall_prolific_pilot_12_towers,63d8c185bbfa79d8246dd97b,9859-823f22f6-687e-4b0a-8708-001b2c27c127,Prolific,trial_end,,,,,,,,,
21,640a264b6e17e9023eee5810,1678386945125.0,,build,"{'blocks': [{'x': 0, 'y': 0, 'height': 2, 'width': 1}, {'x': 0, 'y': 2, 'height': 1, 'width': 2}, {'x': 1, 'y': 3, 'height': 2, 'width': 1}, {'x': 0, 'y': 5, 'height': 1, 'width': 2}, {'x': 3, 'y': 0, 'height': 2, 'width': 1}, {'x': 2, 'y': 2, 'height': 1, 'width': 2}, {'x': 2, 'y': 3, 'height': 1, 'width': 2}, {'x': 2, 'y': 4, 'height': 2, 'width': 1}]}",,6,0000000000000000111000000110000001110000111100001001000010010000,talls_122_115,tall_122,wide_024,tall_115,wide_019,talls_122_115,talls_122_115,block-tower-building-undo,8,243929,0.0-8.0,block_construction_build_components,build_components_build_recall_prolific_pilot_12_towers,6283d89bcd079ca335fc8fb3,1472-558fdf95-c29d-4bf6-baab-a1d63e555440,Prolific,trial_end,1678386974602.0,240646.0,"[{'x': 4, 'y': 0, 'width': 1, 'height': 2}, {'x': 7, 'y': 0, 'width': 1, 'height': 2}, {'x': 4, 'y': 2, 'width': 2, 'height': 1}, {'x': 6, 'y': 2, 'width': 2, 'height': 1}, {'x': 6, 'y': 3, 'width': 2, 'height': 1}, {'x': 5, 'y': 3, 'width': 1, 'height': 2}, {'x': 4, 'y': 5, 'width': 2, 'height': 1}, {'x': 6, 'y': 4, 'width': 1, 'height': 2}]","[[True, True, True, True, True, True, True, True, True, True], [True, True, True, True, True, True, True, True, True, True], [True, True, True, True, True, True, True, True, True, True], [True, True, True, True, True, True, True, True, True, True], [False, False, False, True, True, False, True, True, True, True], [True, True, False, False, False, False, True, True, True, True], [True, True, False, False, False, False, True, True, True, True], [False, False, False, False, True, True, True, True, True, True], [True, True, True, True, True, True, True, True, True, True], [True, True, True, True, True, True, True, True, True, True], [True, True, True, True, True, True, True, True, True, True], [True, True, True, True, True, True, True, True, True, True]]",trial_end,perfect-reconstruction-translation,29480.0,0.0,0.0
22,640a264d6e17e9023eee5813,1678386749510.0,1678386764532.0,view,"{'blocks': [{'x': 0, 'y': 0, 'height': 1, 'width': 2}, {'x': 0, 'y': 1, 'height': 2, 'width': 1}, {'x': 0, 'y': 3, 'height': 1, 'width': 2}, {'x': 1, 'y': 4, 'height': 2, 'width': 1}, {'x': 2, 'y': 0, 'height': 1, 'width': 2}, {'x': 2, 'y': 1, 'height': 2, 'width': 1}, {'x': 2, 'y': 3, 'height': 2, 'width': 1}, {'x': 2, 'y': 5, 'height': 1, 'width': 2}]}",,3,0000000000000000011100000110000011100000101000001010000011110000,talls_100_125,tall_100,wide_014,tall_125,wide_011,talls_100_125,talls_100_125,block-tower-viewing,5,375849,0.0-5.0,block_construction_build_components,build_components_build_recall_prolific_pilot_12_towers,5aa0594cb5e2110001c70131,7455-c0152c2e-dbcb-40bf-9a61-b5ee8747935e,Prolific,trial_end,,,,,,,,,
23,640a26546e17e9023eee5818,1678386757868.0,,build,"{'blocks': [{'x': 1, 'y': 0, 'height': 2, 'width': 1}, {'x': 0, 'y': 2, 'height': 1, 'width': 2}, {'x': 0, 'y': 3, 'height': 2, 'width': 1}, {'x': 0, 'y': 5, 'height': 1, 'width': 2}, {'x': 2, 'y': 0, 'height': 2, 'width': 1}, {'x': 2, 'y': 2, 'height': 1, 'width': 2}, {'x': 3, 'y': 3, 'height': 2, 'width': 1}, {'x': 2, 'y': 5, 'height': 1, 'width': 2}]}",,7,0000000000000000111100001001000010010000111100000110000001100000,talls_126_122,tall_126,wide_023,tall_122,wide_024,talls_126_122,talls_126_122,block-tower-building-undo,9,265973,0.0-9.0,block_construction_build_components,build_components_build_recall_prolific_pilot_12_towers,63d8c185bbfa79d8246dd97b,9859-823f22f6-687e-4b0a-8708-001b2c27c127,Prolific,trial_end,1678386768994.0,262772.0,"[{'x': 5, 'y': 0, 'width': 1, 'height': 2}, {'x': 6, 'y': 0, 'width': 1, 'height': 2}, {'x': 4, 'y': 2, 'width': 2, 'height': 1}, {'x': 6, 'y': 2, 'width': 2, 'height': 1}, {'x': 4, 'y': 3, 'width': 1, 'height': 2}, {'x': 7, 'y': 3, 'width': 1, 'height': 2}, {'x': 4, 'y': 5, 'width': 2, 'height': 1}, {'x': 6, 'y': 5, 'width': 2, 'height': 1}]","[[True, True, True, True, True, True, True, True, True, True], [True, True, True, True, True, True, True, True, True, True], [True, True, True, True, True, True, True, True, True, True], [True, True, True, True, True, True, True, True, True, True], [True, True, False, False, False, False, True, True, True, True], [False, False, False, True, True, False, True, True, True, True], [False, False, False, True, True, False, True, True, True, True], [True, True, False, False, False, False, True, True, True, True], [True, True, True, True, True, True, True, True, True, True], [True, True, True, True, True, True, True, True, True, True], [True, True, True, True, True, True, True, True, True, True], [True, True, True, True, True, True, True, True, True, True]]",trial_end,perfect-reconstruction-translation,11127.0,0.0,0.0
24,640a265c6e17e9023eee581c,1678386979565.0,1678386994679.0,view,"{'blocks': [{'x': 0, 'y': 0, 'height': 1, 'width': 2}, {'x': 1, 'y': 1, 'height': 2, 'width': 1}, {'x': 1, 'y': 3, 'height': 2, 'width': 1}, {'x': 0, 'y': 5, 'height': 1, 'width': 2}, {'x': 2, 'y': 0, 'height': 1, 'width': 2}, {'x': 2, 'y': 1, 'height': 2, 'width': 1}, {'x': 2, 'y': 3, 'height': 1, 'width': 2}, {'x': 2, 'y': 4, 'height': 2, 'width': 1}]}",,7,0000000000000000111000000110000001110000011000000110000011110000,talls_118_114,tall_118,wide_008,tall_114,wide_019,talls_118_114,talls_118_114,block-tower-viewing,9,260896,0.0-9.0,block_construction_build_components,build_components_build_recall_prolific_pilot_12_towers,6283d89bcd079ca335fc8fb3,1472-558fdf95-c29d-4bf6-baab-a1d63e555440,Prolific,trial_end,,,,,,,,,
25,640a265e6e17e9023eee581f,1678386766135.0,1678386781150.0,view,"{'blocks': [{'x': 0, 'y': 0, 'height': 2, 'width': 1}, {'x': 0, 'y': 2, 'height': 1, 'width': 2}, {'x': 0, 'y': 3, 'height': 2, 'width': 1}, {'x': 0, 'y': 5, 'height': 1, 'width': 2}, {'x': 2, 'y': 0, 'height': 1, 'width': 2}, {'x': 2, 'y': 1, 'height': 2, 'width': 1}, {'x': 2, 'y': 3, 'height': 2, 'width': 1}, {'x': 2, 'y': 5, 'height': 1, 'width': 2}]}",,4,0000000000000000111100001010000010100000111000001010000010110000,talls_127_125,tall_127,wide_020,tall_125,wide_025,talls_127_125,talls_127_125,block-tower-viewing,6,392468,0.0-6.0,block_construction_build_components,build_components_build_recall_prolific_pilot_12_towers,5aa0594cb5e2110001c70131,7455-c0152c2e-dbcb-40bf-9a61-b5ee8747935e,Prolific,trial_end,,,,,,,,,
26,640a266d6e17e9023eee582b,1678386773722.0,,build,"{'blocks': [{'x': 0, 'y': 0, 'height': 2, 'width': 1}, {'x': 0, 'y': 2, 'height': 1, 'width': 2}, {'x': 0, 'y': 3, 'height': 2, 'width': 1}, {'x': 0, 'y': 5, 'height': 1, 'width': 2}, {'x': 2, 'y': 0, 'height': 1, 'width': 2}, {'x': 2, 'y': 1, 'height': 2, 'width': 1}, {'x': 2, 'y': 3, 'height': 2, 'width': 1}, {'x': 2, 'y': 5, 'height': 1, 'width': 2}]}",,8,0000000000000000111100001010000010100000111000001010000010110000,talls_127_125,tall_127,wide_020,tall_125,wide_025,talls_127_125,talls_127_125,block-tower-building-undo,10,290165,0.0-10.0,block_construction_build_components,build_components_build_recall_prolific_pilot_12_towers,63d8c185bbfa79d8246dd97b,9859-823f22f6-687e-4b0a-8708-001b2c27c127,Prolific,trial_end,1678386793132.0,286910.0,"[{'x': 3, 'y': 0, 'width': 1, 'height': 2}, {'x': 3, 'y': 2, 'width': 2, 'height': 1}, {'x': 3, 'y': 3, 'width': 1, 'height': 2}, {'x': 3, 'y': 5, 'width': 2, 'height': 1}, {'x': 5, 'y': 0, 'width': 2, 'height': 1}, {'x': 5, 'y': 1, 'width': 1, 'height': 2}, {'x': 5, 'y': 3, 'width': 1, 'height': 2}, {'x': 5, 'y': 5, 'width': 2, 'height': 1}]","[[True, True, True, True, True, True, True, True, True, True], [True, True, True, True, True, True, True, True, True, True], [True, True, True, True, True, True, True, True, True, True], [False, False, False, False, False, False, True, True, True, True], [True, True, False, True, True, False, True, True, True, True], [False, False, False, False, False, False, True, True, True, True], [False, True, True, True, True, False, True, True, True, True], [True, True, True, True, True, True, True, True, True, True], [True, True, True, True, True, True, True, True, True, True], [True, True, True, True, True, True, True, True, True, True], [True, True, True, True, True, True, True, True, True, True], [True, True, True, True, True, True, True, True, True, True]]",trial_end,perfect-reconstruction-translation,19410.0,0.0,0.0
27,640a266d6e17e9023eee582d,1678386996529.0,1678387011647.0,view,"{'blocks': [{'x': 0, 'y': 0, 'height': 1, 'width': 2}, {'x': 0, 'y': 1, 'height': 2, 'width': 1}, {'x': 0, 'y': 3, 'height': 1, 'width': 2}, {'x': 1, 'y': 4, 'height': 2, 'width': 1}, {'x': 2, 'y': 0, 'height': 2, 'width': 1}, {'x': 2, 'y': 2, 'height': 1, 'width': 2}, {'x': 3, 'y': 3, 'height': 2, 'width': 1}, {'x': 2, 'y': 5, 'height': 1, 'width': 2}]}",,8,0000000000000000011100000101000011010000101100001010000011100000,talls_100_122,tall_100,wide_015,tall_122,wide_010,talls_100_122,talls_100_122,block-tower-viewing,10,277852,0.0-10.0,block_construction_build_components,build_components_build_recall_prolific_pilot_12_towers,6283d89bcd079ca335fc8fb3,1472-558fdf95-c29d-4bf6-baab-a1d63e555440,Prolific,trial_end,,,,,,,,,
28,640a267d6e17e9023eee5832,1678386797921.0,1678386813004.0,view,"{'blocks': [{'x': 0, 'y': 0, 'height': 1, 'width': 2}, {'x': 1, 'y': 1, 'height': 2, 'width': 1}, {'x': 0, 'y': 3, 'height': 1, 'width': 2}, {'x': 0, 'y': 4, 'height': 2, 'width': 1}, {'x': 2, 'y': 0, 'height': 1, 'width': 2}, {'x': 2, 'y': 1, 'height': 2, 'width': 1}, {'x': 2, 'y': 3, 'height': 2, 'width': 1}, {'x': 2, 'y': 5, 'height': 1, 'width': 2}]}",,9,0000000000000000101100001010000011100000011000000110000011110000,talls_111_125,tall_111,wide_008,tall_125,wide_015,talls_111_125,talls_111_125,block-tower-viewing,11,306948,0.0-11.0,block_construction_build_components,build_components_build_recall_prolific_pilot_12_towers,63d8c185bbfa79d8246dd97b,9859-823f22f6-687e-4b0a-8708-001b2c27c127,Prolific,trial_end,,,,,,,,,
29,640a267e6e17e9023eee5833,1678387013487.0,1678387028611.0,view,"{'blocks': [{'x': 1, 'y': 0, 'height': 2, 'width': 1}, {'x': 0, 'y': 2, 'height': 1, 'width': 2}, {'x': 0, 'y': 3, 'height': 1, 'width': 2}, {'x': 0, 'y': 4, 'height': 2, 'width': 1}, {'x': 3, 'y': 0, 'height': 2, 'width': 1}, {'x': 2, 'y': 2, 'height': 1, 'width': 2}, {'x': 2, 'y': 3, 'height': 1, 'width': 2}, {'x': 3, 'y': 4, 'height': 2, 'width': 1}]}",,9,0000000000000000100100001001000011110000111100000101000001010000,talls_115_101,tall_115,wide_022,tall_101,wide_013,talls_115_101,talls_115_101,block-tower-viewing,11,294792,0.0-11.0,block_construction_build_components,build_components_build_recall_prolific_pilot_12_towers,6283d89bcd079ca335fc8fb3,1472-558fdf95-c29d-4bf6-baab-a1d63e555440,Prolific,trial_end,,,,,,,,,
30,640a268b6e17e9023eee5840,1678386782754.0,,build,"{'blocks': [{'x': 1, 'y': 0, 'height': 2, 'width': 1}, {'x': 0, 'y': 2, 'height': 1, 'width': 2}, {'x': 0, 'y': 3, 'height': 1, 'width': 2}, {'x': 0, 'y': 4, 'height': 2, 'width': 1}, {'x': 3, 'y': 0, 'height': 2, 'width': 1}, {'x': 2, 'y': 2, 'height': 1, 'width': 2}, {'x': 2, 'y': 3, 'height': 1, 'width': 2}, {'x': 3, 'y': 4, 'height': 2, 'width': 1}]}",,5,0000000000000000100100001001000011110000111100000101000001010000,talls_115_101,tall_115,wide_022,tall_101,wide_013,talls_115_101,talls_115_101,block-tower-building-undo,7,437614,0.0-7.0,block_construction_build_components,build_components_build_recall_prolific_pilot_12_towers,5aa0594cb5e2110001c70131,7455-c0152c2e-dbcb-40bf-9a61-b5ee8747935e,Prolific,trial_end,1678386823262.0,435261.0,"[{'x': 4, 'y': 0, 'width': 1, 'height': 2}, {'x': 6, 'y': 0, 'width': 1, 'height': 2}, {'x': 5, 'y': 2, 'width': 2, 'height': 1}, {'x': 3, 'y': 2, 'width': 2, 'height': 1}, {'x': 5, 'y': 3, 'width': 2, 'height': 1}, {'x': 3, 'y': 3, 'width': 2, 'height': 1}, {'x': 3, 'y': 4, 'width': 1, 'height': 2}, {'x': 6, 'y': 4, 'width': 1, 'height': 2}]","[[True, True, True, True, True, True, True, True, True, True], [True, True, True, True, True, True, True, True, True, True], [True, True, True, True, True, True, True, True, True, True], [True, True, False, False, False, False, True, True, True, True], [False, False, False, False, True, True, True, True, True, True], [True, True, False, False, True, True, True, True, True, True], [False, False, False, False, False, False, True, True, True, True], [True, True, True, True, True, True, True, True, True, True], [True, True, True, True, True, True, True, True, True, True], [True, True, True, True, True, True, True, True, True, True], [True, True, True, True, True, True, True, True, True, True], [True, True, True, True, True, True, True, True, True, True]]",trial_end,perfect-reconstruction-translation,40510.0,0.0,0.0
31,640a268e6e17e9023eee5844,1678386814712.0,1678386829768.0,view,"{'blocks': [{'x': 1, 'y': 0, 'height': 2, 'width': 1}, {'x': 0, 'y': 2, 'height': 1, 'width': 2}, {'x': 0, 'y': 3, 'height': 1, 'width': 2}, {'x': 0, 'y': 4, 'height': 2, 'width': 1}, {'x': 3, 'y': 0, 'height': 2, 'width': 1}, {'x': 2, 'y': 2, 'height': 1, 'width': 2}, {'x': 2, 'y': 3, 'height': 1, 'width': 2}, {'x': 3, 'y': 4, 'height': 2, 'width': 1}]}",,10,0000000000000000100100001001000011110000111100000101000001010000,talls_115_101,tall_115,wide_022,tall_101,wide_013,talls_115_101,talls_115_101,block-tower-viewing,12,323732,0.0-12.0,block_construction_build_components,build_components_build_recall_prolific_pilot_12_towers,63d8c185bbfa79d8246dd97b,9859-823f22f6-687e-4b0a-8708-001b2c27c127,Prolific,trial_end,,,,,,,,,
32,640a269f6e17e9023eee5856,1678387030373.0,,build,"{'blocks': [{'x': 1, 'y': 0, 'height': 2, 'width': 1}, {'x': 0, 'y': 2, 'height': 1, 'width': 2}, {'x': 1, 'y': 3, 'height': 2, 'width': 1}, {'x': 0, 'y': 5, 'height': 1, 'width': 2}, {'x': 2, 'y': 0, 'height': 1, 'width': 2}, {'x': 2, 'y': 1, 'height': 2, 'width': 1}, {'x': 2, 'y': 3, 'height': 1, 'width': 2}, {'x': 3, 'y': 4, 'height': 2, 'width': 1}]}",,10,0000000000000000110100000101000001110000111000000110000001110000,talls_121_100,tall_121,wide_019,tall_100,wide_018,talls_121_100,talls_121_100,block-tower-building-undo,12,327565,0.0-12.0,block_construction_build_components,build_components_build_recall_prolific_pilot_12_towers,6283d89bcd079ca335fc8fb3,1472-558fdf95-c29d-4bf6-baab-a1d63e555440,Prolific,trial_end,1678387058214.0,324258.0,"[{'x': 6, 'y': 0, 'width': 2, 'height': 1}, {'x': 5, 'y': 0, 'width': 1, 'height': 2}, {'x': 6, 'y': 1, 'width': 1, 'height': 2}, {'x': 4, 'y': 2, 'width': 2, 'height': 1}, {'x': 6, 'y': 3, 'width': 2, 'height': 1}, {'x': 7, 'y': 4, 'width': 1, 'height': 2}, {'x': 5, 'y': 3, 'width': 1, 'height': 2}, {'x': 4, 'y': 5, 'width': 2, 'height': 1}]","[[True, True, True, True, True, True, True, True, True, True], [True, True, True, True, True, True, True, True, True, True], [True, True, True, True, True, True, True, True, True, True], [True, True, True, True, True, True, True, True, True, True], [True, True, False, True, True, False, True, True, True, True], [False, False, False, False, False, False, True, True, True, True], [False, False, False, False, True, True, True, True, True, True], [False, True, True, False, False, False, True, True, True, True], [True, True, True, True, True, True, True, True, True, True], [True, True, True, True, True, True, True, True, True, True], [True, True, True, True, True, True, True, True, True, True], [True, True, True, True, True, True, True, True, True, True]]",trial_end,perfect-reconstruction-translation,27844.0,0.0,0.0
33,640a26ad6e17e9023eee5864,1678386831491.0,,build,"{'blocks': [{'x': 1, 'y': 0, 'height': 2, 'width': 1}, {'x': 0, 'y': 2, 'height': 1, 'width': 2}, {'x': 1, 'y': 3, 'height': 2, 'width': 1}, {'x': 0, 'y': 5, 'height': 1, 'width': 2}, {'x': 2, 'y': 0, 'height': 1, 'width': 2}, {'x': 2, 'y': 1, 'height': 2, 'width': 1}, {'x': 2, 'y': 3, 'height': 1, 'width': 2}, {'x': 3, 'y': 4, 'height': 2, 'width': 1}]}",,11,0000000000000000110100000101000001110000111000000110000001110000,talls_121_100,tall_121,wide_019,tall_100,wide_018,talls_121_100,talls_121_100,block-tower-building-undo,13,354313,0.0-13.0,block_construction_build_components,build_components_build_recall_prolific_pilot_12_towers,63d8c185bbfa79d8246dd97b,9859-823f22f6-687e-4b0a-8708-001b2c27c127,Prolific,trial_end,1678386857291.0,351069.0,"[{'x': 5, 'y': 0, 'width': 2, 'height': 1}, {'x': 4, 'y': 0, 'width': 1, 'height': 2}, {'x': 5, 'y': 1, 'width': 1, 'height': 2}, {'x': 3, 'y': 2, 'width': 2, 'height': 1}, {'x': 5, 'y': 3, 'width': 2, 'height': 1}, {'x': 6, 'y': 4, 'width': 1, 'height': 2}, {'x': 4, 'y': 3, 'width': 1, 'height': 2}, {'x': 3, 'y': 5, 'width': 2, 'height': 1}]","[[True, True, True, True, True, True, True, True, True, True], [True, True, True, True, True, True, True, True, True, True], [True, True, True, True, True, True, True, True, True, True], [True, True, False, True, True, False, True, True, True, True], [False, False, False, False, False, False, True, True, True, True], [False, False, False, False, True, True, True, True, True, True], [False, True, True, False, False, False, True, True, True, True], [True, True, True, True, True, True, True, True, True, True], [True, True, True, True, True, True, True, True, True, True], [True, True, True, True, True, True, True, True, True, True], [True, True, True, True, True, True, True, True, True, True], [True, True, True, True, True, True, True, True, True, True]]",trial_end,perfect-reconstruction-translation,25800.0,0.0,1.0
34,640a26af6e17e9023eee5865,1678386646955.0,,build,"{'blocks': [{'x': 0, 'y': 0, 'height': 2, 'width': 1}, {'x': 0, 'y': 2, 'height': 1, 'width': 2}, {'x': 0, 'y': 3, 'height': 1, 'width': 2}, {'x': 0, 'y': 4, 'height': 2, 'width': 1}, {'x': 2, 'y': 0, 'height': 1, 'width': 2}, {'x': 2, 'y': 1, 'height': 2, 'width': 1}, {'x': 2, 'y': 3, 'height': 1, 'width': 2}, {'x': 2, 'y': 4, 'height': 2, 'width': 1}]}",,2,0000000000000000101000001010000011110000111000001010000010110000,talls_116_114,tall_116,wide_020,tall_114,wide_014,talls_116_114,talls_116_114,block-tower-building-undo,4,408574,0.0-4.0,block_construction_build_components,build_components_build_recall_prolific_pilot_12_towers,6394c4a71be9ebcc632f18f1,1285-e4a57d43-41b7-4ca8-a339-8d2c54ee08c0,Prolific,trial_end,1678386860118.0,405626.0,"[{'x': 3, 'y': 0, 'width': 1, 'height': 2}, {'x': 5, 'y': 0, 'width': 2, 'height': 1}, {'x': 3, 'y': 2, 'width': 2, 'height': 1}, {'x': 5, 'y': 1, 'width': 1, 'height': 2}, {'x': 5, 'y': 3, 'width': 2, 'height': 1}, {'x': 3, 'y': 3, 'width': 2, 'height': 1}, {'x': 3, 'y': 4, 'width': 1, 'height': 2}, {'x': 5, 'y': 4, 'width': 1, 'height': 2}]","[[True, True, True, True, True, True, True, True, True, True], [True, True, True, True, True, True, True, True, True, True], [True, True, True, True, True, True, True, True, True, True], [False, False, False, False, False, False, True, True, True, True], [True, True, False, False, True, True, True, True, True, True], [False, False, False, False, False, False, True, True, True, True], [False, True, True, False, True, True, True, True, True, True], [True, True, True, True, True, True, True, True, True, True], [True, True, True, True, True, True, True, True, True, True], [True, True, True, True, True, True, True, True, True, True], [True, True, True, True, True, True, True, True, True, True], [True, True, True, True, True, True, True, True, True, True]]",trial_end,perfect-reconstruction-translation,213164.0,0.0,2.0
35,640a26b06e17e9023eee5866,1678387063224.0,1678387078343.0,view,"{'blocks': [{'x': 0, 'y': 0, 'height': 1, 'width': 2}, {'x': 1, 'y': 1, 'height': 2, 'width': 1}, {'x': 1, 'y': 3, 'height': 2, 'width': 1}, {'x': 0, 'y': 5, 'height': 1, 'width': 2}, {'x': 3, 'y': 0, 'height': 2, 'width': 1}, {'x': 2, 'y': 2, 'height': 1, 'width': 2}, {'x': 3, 'y': 3, 'height': 2, 'width': 1}, {'x': 2, 'y': 5, 'height': 1, 'width': 2}]}",,11,0000000000000000111100000101000001010000011100000101000011010000,talls_118_121,tall_118,wide_010,tall_121,wide_022,talls_118_121,talls_118_121,block-tower-viewing,13,344583,0.0-13.0,block_construction_build_components,build_components_build_recall_prolific_pilot_12_towers,6283d89bcd079ca335fc8fb3,1472-558fdf95-c29d-4bf6-baab-a1d63e555440,Prolific,trial_end,,,,,,,,,
36,640a26bd6e17e9023eee5870,1678386862076.0,1678386877146.0,view,"{'blocks': [{'x': 0, 'y': 0, 'height': 1, 'width': 2}, {'x': 0, 'y': 1, 'height': 2, 'width': 1}, {'x': 0, 'y': 3, 'height': 1, 'width': 2}, {'x': 1, 'y': 4, 'height': 2, 'width': 1}, {'x': 2, 'y': 0, 'height': 1, 'width': 2}, {'x': 3, 'y': 1, 'height': 2, 'width': 1}, {'x': 2, 'y': 3, 'height': 1, 'width': 2}, {'x': 3, 'y': 4, 'height': 2, 'width': 1}]}",,12,0000000000000000010100000101000011110000100100001001000011110000,talls_100_097,tall_100,wide_013,tall_097,wide_006,talls_100_097,talls_100_097,block-tower-viewing,14,371107,0.0-14.0,block_construction_build_components,build_components_build_recall_prolific_pilot_12_towers,63d8c185bbfa79d8246dd97b,9859-823f22f6-687e-4b0a-8708-001b2c27c127,Prolific,trial_end,,,,,,,,,
37,640a26d16e17e9023eee5880,1678386676221.0,,build,"{'blocks': [{'x': 0, 'y': 0, 'height': 1, 'width': 2}, {'x': 0, 'y': 1, 'height': 2, 'width': 1}, {'x': 0, 'y': 3, 'height': 1, 'width': 2}, {'x': 1, 'y': 4, 'height': 2, 'width': 1}, {'x': 2, 'y': 0, 'height': 2, 'width': 1}, {'x': 2, 'y': 2, 'height': 1, 'width': 2}, {'x': 3, 'y': 3, 'height': 2, 'width': 1}, {'x': 2, 'y': 5, 'height': 1, 'width': 2}]}",,8,0000000000000000011100000101000011010000101100001010000011100000,talls_100_122,tall_100,wide_015,tall_122,wide_010,talls_100_122,talls_100_122,block-tower-building-undo,10,566026,0.0-10.0,block_construction_build_components,build_components_build_recall_prolific_pilot_12_towers,63f7a2f266965681c3e47996,4135-185d04be-2d34-4e17-a047-41647095ac78,Prolific,trial_end,1678386893172.0,562609.0,"[{'x': 4, 'y': 0, 'width': 2, 'height': 1}, {'x': 4, 'y': 1, 'width': 1, 'height': 2}, {'x': 4, 'y': 3, 'width': 2, 'height': 1}, {'x': 5, 'y': 4, 'width': 1, 'height': 2}, {'x': 6, 'y': 0, 'width': 1, 'height': 2}, {'x': 6, 'y': 2, 'width': 2, 'height': 1}, {'x': 7, 'y': 3, 'width': 1, 'height': 2}, {'x': 6, 'y': 5, 'width': 2, 'height': 1}]","[[True, True, True, True, True, True, True, True, True, True], [True, True, True, True, True, True, True, True, True, True], [True, True, True, True, True, True, True, True, True, True], [True, True, True, True, True, True, True, True, True, True], [False, False, False, False, True, True, True, True, True, True], [False, True, True, False, False, False, True, True, True, True], [False, False, False, True, True, False, True, True, True, True], [True, True, False, False, False, False, True, True, True, True], [True, True, True, True, True, True, True, True, True, True], [True, True, True, True, True, True, True, True, True, True], [True, True, True, True, True, True, True, True, True, True], [True, True, True, True, True, True, True, True, True, True]]",trial_end,perfect-reconstruction-translation,216951.0,0.0,4.0
38,640a26db6e17e9023eee588d,1678387080202.0,,build,"{'blocks': [{'x': 0, 'y': 0, 'height': 2, 'width': 1}, {'x': 0, 'y': 2, 'height': 1, 'width': 2}, {'x': 0, 'y': 3, 'height': 2, 'width': 1}, {'x': 0, 'y': 5, 'height': 1, 'width': 2}, {'x': 3, 'y': 0, 'height': 2, 'width': 1}, {'x': 2, 'y': 2, 'height': 1, 'width': 2}, {'x': 2, 'y': 3, 'height': 1, 'width': 2}, {'x': 2, 'y': 4, 'height': 2, 'width': 1}]}",,12,0000000000000000111000001010000010110000111100001001000010010000,talls_127_115,tall_127,wide_024,tall_115,wide_020,talls_127_115,talls_127_115,block-tower-building-undo,14,387220,0.0-14.0,block_construction_build_components,build_components_build_recall_prolific_pilot_12_towers,6283d89bcd079ca335fc8fb3,1472-558fdf95-c29d-4bf6-baab-a1d63e555440,Prolific,trial_end,1678387117816.0,383860.0,"[{'x': 3, 'y': 0, 'width': 1, 'height': 2}, {'x': 6, 'y': 0, 'width': 1, 'height': 2}, {'x': 5, 'y': 2, 'width': 2, 'height': 1}, {'x': 5, 'y': 3, 'width': 2, 'height': 1}, {'x': 5, 'y': 4, 'width': 1, 'height': 2}, {'x': 3, 'y': 2, 'width': 2, 'height': 1}, {'x': 3, 'y': 3, 'width': 1, 'height': 2}, {'x': 3, 'y': 5, 'width': 2, 'height': 1}]","[[True, True, True, True, True, True, True, True, True, True], [True, True, True, True, True, True, True, True, True, True], [True, True, True, True, True, True, True, True, True, True], [False, False, False, False, False, False, True, True, True, True], [True, True, False, True, True, False, True, True, True, True], [True, True, False, False, False, False, True, True, True, True], [False, False, False, False, True, True, True, True, True, True], [True, True, True, True, True, True, True, True, True, True], [True, True, True, True, True, True, True, True, True, True], [True, True, True, True, True, True, True, True, True, True], [True, True, True, True, True, True, True, True, True, True], [True, True, True, True, True, True, True, True, True, True]]",trial_end,perfect-reconstruction-translation,37616.0,0.0,0.0
39,640a26f46e17e9023eee58a3,1678386864842.0,,build,"{'blocks': [{'x': 1, 'y': 0, 'height': 2, 'width': 1}, {'x': 0, 'y': 2, 'height': 1, 'width': 2}, {'x': 0, 'y': 3, 'height': 1, 'width': 2}, {'x': 1, 'y': 4, 'height': 2, 'width': 1}, {'x': 2, 'y': 0, 'height': 1, 'width': 2}, {'x': 3, 'y': 1, 'height': 2, 'width': 1}, {'x': 2, 'y': 3, 'height': 1, 'width': 2}, {'x': 2, 'y': 4, 'height': 2, 'width': 1}]}",,3,0000000000000000011000000110000011110000110100000101000001110000,talls_101_111,tall_101,wide_018,tall_111,wide_008,talls_101_111,talls_101_111,block-tower-building-undo,5,477298,0.0-5.0,block_construction_build_components,build_components_build_recall_prolific_pilot_12_towers,6394c4a71be9ebcc632f18f1,1285-e4a57d43-41b7-4ca8-a339-8d2c54ee08c0,Prolific,trial_end,1678386928835.0,474343.0,"[{'x': 7, 'y': 0, 'width': 2, 'height': 1}, {'x': 8, 'y': 1, 'width': 1, 'height': 2}, {'x': 7, 'y': 3, 'width': 2, 'height': 1}, {'x': 6, 'y': 0, 'width': 1, 'height': 2}, {'x': 5, 'y': 2, 'width': 2, 'height': 1}, {'x': 5, 'y': 3, 'width': 2, 'height': 1}, {'x': 6, 'y': 4, 'width': 1, 'height': 2}, {'x': 7, 'y': 4, 'width': 1, 'height': 2}]","[[True, True, True, True, True, True, True, True, True, True], [True, True, True, True, True, True, True, True, True, True], [True, True, True, True, True, True, True, True, True, True], [True, True, True, True, True, True, True, True, True, True], [True, True, True, True, True, True, True, True, True, True], [True, True, False, False, True, True, True, True, True, True], [False, False, False, False, False, False, True, True, True, True], [False, True, True, False, False, False, True, True, True, True], [False, False, False, False, True, True, True, True, True, True], [True, True, True, True, True, True, True, True, True, True], [True, True, True, True, True, True, True, True, True, True], [True, True, True, True, True, True, True, True, True, True]]",trial_end,perfect-reconstruction-translation,63995.0,0.0,1.0
40,640a27056e17e9023eee58b4,1678386933570.0,1678386948661.0,view,"{'blocks': [{'x': 1, 'y': 0, 'height': 2, 'width': 1}, {'x': 0, 'y': 2, 'height': 1, 'width': 2}, {'x': 1, 'y': 3, 'height': 2, 'width': 1}, {'x': 0, 'y': 5, 'height': 1, 'width': 2}, {'x': 3, 'y': 0, 'height': 2, 'width': 1}, {'x': 2, 'y': 2, 'height': 1, 'width': 2}, {'x': 2, 'y': 3, 'height': 1, 'width': 2}, {'x': 3, 'y': 4, 'height': 2, 'width': 1}]}",,4,0000000000000000110100000101000001110000111100000101000001010000,talls_121_101,tall_121,wide_022,tall_101,wide_018,talls_121_101,talls_121_101,block-tower-viewing,6,494092,0.0-6.0,block_construction_build_components,build_components_build_recall_prolific_pilot_12_towers,6394c4a71be9ebcc632f18f1,1285-e4a57d43-41b7-4ca8-a339-8d2c54ee08c0,Prolific,trial_end,,,,,,,,,
41,640a270b6e17e9023eee58be,1678386898012.0,,build,"{'blocks': [{'x': 1, 'y': 0, 'height': 2, 'width': 1}, {'x': 0, 'y': 2, 'height': 1, 'width': 2}, {'x': 0, 'y': 3, 'height': 1, 'width': 2}, {'x': 1, 'y': 4, 'height': 2, 'width': 1}, {'x': 2, 'y': 0, 'height': 1, 'width': 2}, {'x': 2, 'y': 1, 'height': 2, 'width': 1}, {'x': 2, 'y': 3, 'height': 1, 'width': 2}, {'x': 3, 'y': 4, 'height': 2, 'width': 1}]}",,9,0000000000000000010100000101000011110000111000000110000001110000,talls_101_100,tall_101,wide_019,tall_100,wide_006,talls_101_100,talls_101_100,block-tower-building-undo,11,623882,0.0-11.0,block_construction_build_components,build_components_build_recall_prolific_pilot_12_towers,63f7a2f266965681c3e47996,4135-185d04be-2d34-4e17-a047-41647095ac78,Prolific,trial_end,1678386950847.0,620284.0,"[{'x': 6, 'y': 0, 'width': 2, 'height': 1}, {'x': 5, 'y': 0, 'width': 1, 'height': 2}, {'x': 6, 'y': 1, 'width': 1, 'height': 2}, {'x': 4, 'y': 2, 'width': 2, 'height': 1}, {'x': 4, 'y': 3, 'width': 2, 'height': 1}, {'x': 6, 'y': 3, 'width': 2, 'height': 1}, {'x': 7, 'y': 4, 'width': 1, 'height': 2}, {'x': 5, 'y': 4, 'width': 1, 'height': 2}]","[[True, True, True, True, True, True, True, True, True, True], [True, True, True, True, True, True, True, True, True, True], [True, True, True, True, True, True, True, True, True, True], [True, True, True, True, True, True, True, True, True, True], [True, True, False, False, True, True, True, True, True, True], [False, False, False, False, False, False, True, True, True, True], [False, False, False, False, True, True, True, True, True, True], [False, True, True, False, False, False, True, True, True, True], [True, True, True, True, True, True, True, True, True, True], [True, True, True, True, True, True, True, True, True, True], [True, True, True, True, True, True, True, True, True, True], [True, True, True, True, True, True, True, True, True, True]]",trial_end,perfect-reconstruction-translation,52836.0,0.0,1.0
42,640a27166e17e9023eee58cb,1678386950354.0,1678386965399.0,view,"{'blocks': [{'x': 0, 'y': 0, 'height': 1, 'width': 2}, {'x': 0, 'y': 1, 'height': 2, 'width': 1}, {'x': 0, 'y': 3, 'height': 1, 'width': 2}, {'x': 1, 'y': 4, 'height': 2, 'width': 1}, {'x': 2, 'y': 0, 'height': 1, 'width': 2}, {'x': 2, 'y': 1, 'height': 2, 'width': 1}, {'x': 2, 'y': 3, 'height': 2, 'width': 1}, {'x': 2, 'y': 5, 'height': 1, 'width': 2}]}",,5,0000000000000000011100000110000011100000101000001010000011110000,talls_100_125,tall_100,wide_014,tall_125,wide_011,talls_100_125,talls_100_125,block-tower-viewing,7,510837,0.0-7.0,block_construction_build_components,build_components_build_recall_prolific_pilot_12_towers,6394c4a71be9ebcc632f18f1,1285-e4a57d43-41b7-4ca8-a339-8d2c54ee08c0,Prolific,trial_end,,,,,,,,,
43,640a27406e17e9023eee5902,1678386967124.0,,build,"{'blocks': [{'x': 1, 'y': 0, 'height': 2, 'width': 1}, {'x': 0, 'y': 2, 'height': 1, 'width': 2}, {'x': 1, 'y': 3, 'height': 2, 'width': 1}, {'x': 0, 'y': 5, 'height': 1, 'width': 2}, {'x': 2, 'y': 0, 'height': 1, 'width': 2}, {'x': 3, 'y': 1, 'height': 2, 'width': 1}, {'x': 3, 'y': 3, 'height': 2, 'width': 1}, {'x': 2, 'y': 5, 'height': 1, 'width': 2}]}",,6,0000000000000000111100000101000001010000110100000101000001110000,talls_121_118,tall_121,wide_018,tall_118,wide_022,talls_121_118,talls_121_118,block-tower-building-undo,8,553423,0.0-8.0,block_construction_build_components,build_components_build_recall_prolific_pilot_12_towers,6394c4a71be9ebcc632f18f1,1285-e4a57d43-41b7-4ca8-a339-8d2c54ee08c0,Prolific,trial_end,1678387004865.0,550373.0,"[{'x': 5, 'y': 0, 'width': 1, 'height': 2}, {'x': 4, 'y': 2, 'width': 2, 'height': 1}, {'x': 6, 'y': 0, 'width': 2, 'height': 1}, {'x': 7, 'y': 1, 'width': 1, 'height': 2}, {'x': 7, 'y': 3, 'width': 1, 'height': 2}, {'x': 5, 'y': 3, 'width': 1, 'height': 2}, {'x': 6, 'y': 5, 'width': 2, 'height': 1}, {'x': 4, 'y': 5, 'width': 2, 'height': 1}]","[[True, True, True, True, True, True, True, True, True, True], [True, True, True, True, True, True, True, True, True, True], [True, True, True, True, True, True, True, True, True, True], [True, True, True, True, True, True, True, True, True, True], [True, True, False, True, True, False, True, True, True, True], [False, False, False, False, False, False, True, True, True, True], [False, True, True, True, True, False, True, True, True, True], [False, False, False, False, False, False, True, True, True, True], [True, True, True, True, True, True, True, True, True, True], [True, True, True, True, True, True, True, True, True, True], [True, True, True, True, True, True, True, True, True, True], [True, True, True, True, True, True, True, True, True, True]]",trial_end,perfect-reconstruction-translation,37742.0,0.0,0.0
44,640a27506e17e9023eee5914,1678386827911.0,,build,"{'blocks': [{'x': 1, 'y': 0, 'height': 2, 'width': 1}, {'x': 0, 'y': 2, 'height': 1, 'width': 2}, {'x': 0, 'y': 3, 'height': 1, 'width': 2}, {'x': 1, 'y': 4, 'height': 2, 'width': 1}, {'x': 2, 'y': 0, 'height': 1, 'width': 2}, {'x': 3, 'y': 1, 'height': 2, 'width': 1}, {'x': 2, 'y': 3, 'height': 1, 'width': 2}, {'x': 2, 'y': 4, 'height': 2, 'width': 1}]}",,6,0000000000000000011000000110000011110000110100000101000001110000,talls_101_111,tall_101,wide_018,tall_111,wide_008,talls_101_111,talls_101_111,block-tower-building-undo,8,634738,0.0-8.0,block_construction_build_components,build_components_build_recall_prolific_pilot_12_towers,5aa0594cb5e2110001c70131,7455-c0152c2e-dbcb-40bf-9a61-b5ee8747935e,Prolific,trial_end,1678387020370.0,632369.0,"[{'x': 4, 'y': 0, 'width': 1, 'height': 2}, {'x': 3, 'y': 2, 'width': 2, 'height': 1}, {'x': 3, 'y': 3, 'width': 2, 'height': 1}, {'x': 4, 'y': 4, 'width': 1, 'height': 2}, {'x': 5, 'y': 0, 'width': 2, 'height': 1}, {'x': 6, 'y': 1, 'width': 1, 'height': 2}, {'x': 5, 'y': 3, 'width': 2, 'height': 1}, {'x': 5, 'y': 4, 'width': 1, 'height': 2}]","[[True, True, True, True, True, True, True, True, True, True], [True, True, True, True, True, True, True, True, True, True], [True, True, True, True, True, True, True, True, True, True], [True, True, False, False, True, True, True, True, True, True], [False, False, False, False, False, False, True, True, True, True], [False, True, True, False, False, False, True, True, True, True], [False, False, False, False, True, True, True, True, True, True], [True, True, True, True, True, True, True, True, True, True], [True, True, True, True, True, True, True, True, True, True], [True, True, True, True, True, True, True, True, True, True], [True, True, True, True, True, True, True, True, True, True], [True, True, True, True, True, True, True, True, True, True]]",trial_end,perfect-reconstruction-translation,192461.0,0.0,2.0
45,640a27516e17e9023eee5916,1678387009728.0,1678387024827.0,view,"{'blocks': [{'x': 0, 'y': 0, 'height': 1, 'width': 2}, {'x': 1, 'y': 1, 'height': 2, 'width': 1}, {'x': 0, 'y': 3, 'height': 1, 'width': 2}, {'x': 0, 'y': 4, 'height': 2, 'width': 1}, {'x': 2, 'y': 0, 'height': 1, 'width': 2}, {'x': 2, 'y': 1, 'height': 2, 'width': 1}, {'x': 2, 'y': 3, 'height': 2, 'width': 1}, {'x': 2, 'y': 5, 'height': 1, 'width': 2}]}",,7,0000000000000000101100001010000011100000011000000110000011110000,talls_111_125,tall_111,wide_008,tall_125,wide_015,talls_111_125,talls_111_125,block-tower-viewing,9,570308,0.0-9.0,block_construction_build_components,build_components_build_recall_prolific_pilot_12_towers,6394c4a71be9ebcc632f18f1,1285-e4a57d43-41b7-4ca8-a339-8d2c54ee08c0,Prolific,trial_end,,,,,,,,,
46,640a27566e17e9023eee591a,1678386955742.0,,build,"{'blocks': [{'x': 0, 'y': 0, 'height': 1, 'width': 2}, {'x': 1, 'y': 1, 'height': 2, 'width': 1}, {'x': 1, 'y': 3, 'height': 2, 'width': 1}, {'x': 0, 'y': 5, 'height': 1, 'width': 2}, {'x': 3, 'y': 0, 'height': 2, 'width': 1}, {'x': 2, 'y': 2, 'height': 1, 'width': 2}, {'x': 3, 'y': 3, 'height': 2, 'width': 1}, {'x': 2, 'y': 5, 'height': 1, 'width': 2}]}",,10,0000000000000000111100000101000001010000011100000101000011010000,talls_118_121,tall_118,wide_010,tall_121,wide_022,talls_118_121,talls_118_121,block-tower-building-undo,12,699130,0.0-12.0,block_construction_build_components,build_components_build_recall_prolific_pilot_12_towers,63f7a2f266965681c3e47996,4135-185d04be-2d34-4e17-a047-41647095ac78,Prolific,trial_end,1678387026161.0,695598.0,"[{'x': 4, 'y': 0, 'width': 2, 'height': 1}, {'x': 7, 'y': 0, 'width': 1, 'height': 2}, {'x': 5, 'y': 1, 'width': 1, 'height': 2}, {'x': 6, 'y': 2, 'width': 2, 'height': 1}, {'x': 5, 'y': 3, 'width': 1, 'height': 2}, {'x': 7, 'y': 3, 'width': 1, 'height': 2}, {'x': 6, 'y': 5, 'width': 2, 'height': 1}, {'x': 4, 'y': 5, 'width': 2, 'height': 1}]","[[True, True, True, True, True, True, True, True, True, True], [True, True, True, True, True, True, True, True, True, True], [True, True, True, True, True, True, True, True, True, True], [True, True, True, True, True, True, True, True, True, True], [False, True, True, True, True, False, True, True, True, True], [False, False, False, False, False, False, True, True, True, True], [True, True, False, True, True, False, True, True, True, True], [False, False, False, False, False, False, True, True, True, True], [True, True, True, True, True, True, True, True, True, True], [True, True, True, True, True, True, True, True, True, True], [True, True, True, True, True, True, True, True, True, True], [True, True, True, True, True, True, True, True, True, True]]",trial_end,perfect-reconstruction-translation,70419.0,0.0,1.0
47,640a27616e17e9023eee5923,1678387025065.0,1678387040104.0,view,"{'blocks': [{'x': 0, 'y': 0, 'height': 1, 'width': 2}, {'x': 0, 'y': 1, 'height': 2, 'width': 1}, {'x': 0, 'y': 3, 'height': 1, 'width': 2}, {'x': 1, 'y': 4, 'height': 2, 'width': 1}, {'x': 2, 'y': 0, 'height': 2, 'width': 1}, {'x': 2, 'y': 2, 'height': 1, 'width': 2}, {'x': 3, 'y': 3, 'height': 2, 'width': 1}, {'x': 2, 'y': 5, 'height': 1, 'width': 2}]}",,7,0000000000000000011100000101000011010000101100001010000011100000,talls_100_122,tall_100,wide_015,tall_122,wide_010,talls_100_122,talls_100_122,block-tower-viewing,9,651466,0.0-9.0,block_construction_build_components,build_components_build_recall_prolific_pilot_12_towers,5aa0594cb5e2110001c70131,7455-c0152c2e-dbcb-40bf-9a61-b5ee8747935e,Prolific,trial_end,,,,,,,,,
48,640a27626e17e9023eee5925,1678387026625.0,1678387041775.0,view,"{'blocks': [{'x': 0, 'y': 0, 'height': 2, 'width': 1}, {'x': 0, 'y': 2, 'height': 1, 'width': 2}, {'x': 0, 'y': 3, 'height': 1, 'width': 2}, {'x': 1, 'y': 4, 'height': 2, 'width': 1}, {'x': 3, 'y': 0, 'height': 2, 'width': 1}, {'x': 2, 'y': 2, 'height': 1, 'width': 2}, {'x': 2, 'y': 3, 'height': 2, 'width': 1}, {'x': 2, 'y': 5, 'height': 1, 'width': 2}]}",,8,0000000000000000011100000110000011100000111100001001000010010000,talls_102_126,tall_102,wide_024,tall_126,wide_011,talls_102_126,talls_102_126,block-tower-viewing,10,587220,0.0-10.0,block_construction_build_components,build_components_build_recall_prolific_pilot_12_towers,6394c4a71be9ebcc632f18f1,1285-e4a57d43-41b7-4ca8-a339-8d2c54ee08c0,Prolific,trial_end,,,,,,,,,
49,640a27676e17e9023eee592a,1678387030952.0,1678387046025.0,view,"{'blocks': [{'x': 0, 'y': 0, 'height': 2, 'width': 1}, {'x': 0, 'y': 2, 'height': 1, 'width': 2}, {'x': 0, 'y': 3, 'height': 1, 'width': 2}, {'x': 1, 'y': 4, 'height': 2, 'width': 1}, {'x': 2, 'y': 0, 'height': 2, 'width': 1}, {'x': 2, 'y': 2, 'height': 1, 'width': 2}, {'x': 2, 'y': 3, 'height': 2, 'width': 1}, {'x': 2, 'y': 5, 'height': 1, 'width': 2}]}",,11,0000000000000000011100000110000011100000111100001010000010100000,talls_102_127,tall_102,wide_025,tall_127,wide_011,talls_102_127,talls_102_127,block-tower-viewing,13,716027,0.0-13.0,block_construction_build_components,build_components_build_recall_prolific_pilot_12_towers,63f7a2f266965681c3e47996,4135-185d04be-2d34-4e17-a047-41647095ac78,Prolific,trial_end,,,,,,,,,
50,640a27786e17e9023eee5947,1678387047834.0,1678387063079.0,view,"{'blocks': [{'x': 0, 'y': 0, 'height': 2, 'width': 1}, {'x': 0, 'y': 2, 'height': 1, 'width': 2}, {'x': 0, 'y': 3, 'height': 2, 'width': 1}, {'x': 0, 'y': 5, 'height': 1, 'width': 2}, {'x': 3, 'y': 0, 'height': 2, 'width': 1}, {'x': 2, 'y': 2, 'height': 1, 'width': 2}, {'x': 2, 'y': 3, 'height': 1, 'width': 2}, {'x': 2, 'y': 4, 'height': 2, 'width': 1}]}",,12,0000000000000000111000001010000010110000111100001001000010010000,talls_127_115,tall_127,wide_024,tall_115,wide_020,talls_127_115,talls_127_115,block-tower-viewing,14,732951,0.0-14.0,block_construction_build_components,build_components_build_recall_prolific_pilot_12_towers,63f7a2f266965681c3e47996,4135-185d04be-2d34-4e17-a047-41647095ac78,Prolific,trial_end,,,,,,,,,
51,640a278d6e17e9023eee5959,1678387043509.0,,build,"{'blocks': [{'x': 0, 'y': 0, 'height': 1, 'width': 2}, {'x': 0, 'y': 1, 'height': 2, 'width': 1}, {'x': 0, 'y': 3, 'height': 1, 'width': 2}, {'x': 0, 'y': 4, 'height': 2, 'width': 1}, {'x': 2, 'y': 0, 'height': 1, 'width': 2}, {'x': 3, 'y': 1, 'height': 2, 'width': 1}, {'x': 2, 'y': 3, 'height': 1, 'width': 2}, {'x': 2, 'y': 4, 'height': 2, 'width': 1}]}",,9,0000000000000000101000001010000011110000100100001001000011110000,talls_114_111,tall_114,wide_013,tall_111,wide_014,talls_114_111,talls_114_111,block-tower-building-undo,11,630659,0.0-11.0,block_construction_build_components,build_components_build_recall_prolific_pilot_12_towers,6394c4a71be9ebcc632f18f1,1285-e4a57d43-41b7-4ca8-a339-8d2c54ee08c0,Prolific,trial_end,1678387082112.0,627620.0,"[{'x': 5, 'y': 0, 'width': 2, 'height': 1}, {'x': 6, 'y': 1, 'width': 1, 'height': 2}, {'x': 5, 'y': 3, 'width': 2, 'height': 1}, {'x': 3, 'y': 0, 'width': 2, 'height': 1}, {'x': 3, 'y': 1, 'width': 1, 'height': 2}, {'x': 3, 'y': 3, 'width': 2, 'height': 1}, {'x': 3, 'y': 4, 'width': 1, 'height': 2}, {'x': 5, 'y': 4, 'width': 1, 'height': 2}]","[[True, True, True, True, True, True, True, True, True, True], [True, True, True, True, True, True, True, True, True, True], [True, True, True, True, True, True, True, True, True, True], [False, False, False, False, False, False, True, True, True, True], [False, True, True, False, True, True, True, True, True, True], [False, True, True, False, False, False, True, True, True, True], [False, False, False, False, True, True, True, True, True, True], [True, True, True, True, True, True, True, True, True, True], [True, True, True, True, True, True, True, True, True, True], [True, True, True, True, True, True, True, True, True, True], [True, True, True, True, True, True, True, True, True, True], [True, True, True, True, True, True, True, True, True, True]]",trial_end,perfect-reconstruction-translation,38604.0,0.0,0.0
52,640a279e6e17e9023eee5966,1678387086987.0,1678387102107.0,view,"{'blocks': [{'x': 0, 'y': 0, 'height': 1, 'width': 2}, {'x': 1, 'y': 1, 'height': 2, 'width': 1}, {'x': 0, 'y': 3, 'height': 1, 'width': 2}, {'x': 1, 'y': 4, 'height': 2, 'width': 1}, {'x': 2, 'y': 0, 'height': 1, 'width': 2}, {'x': 3, 'y': 1, 'height': 2, 'width': 1}, {'x': 3, 'y': 3, 'height': 2, 'width': 1}, {'x': 2, 'y': 5, 'height': 1, 'width': 2}]}",,10,0000000000000000011100000101000011010000010100000101000011110000,talls_097_118,tall_097,wide_006,tall_118,wide_010,talls_097_118,talls_097_118,block-tower-viewing,12,647574,0.0-12.0,block_construction_build_components,build_components_build_recall_prolific_pilot_12_towers,6394c4a71be9ebcc632f18f1,1285-e4a57d43-41b7-4ca8-a339-8d2c54ee08c0,Prolific,trial_end,,,,,,,,,
53,640a27af6e17e9023eee597b,1678387103935.0,1678387119027.0,view,"{'blocks': [{'x': 1, 'y': 0, 'height': 2, 'width': 1}, {'x': 0, 'y': 2, 'height': 1, 'width': 2}, {'x': 0, 'y': 3, 'height': 1, 'width': 2}, {'x': 0, 'y': 4, 'height': 2, 'width': 1}, {'x': 3, 'y': 0, 'height': 2, 'width': 1}, {'x': 2, 'y': 2, 'height': 1, 'width': 2}, {'x': 2, 'y': 3, 'height': 1, 'width': 2}, {'x': 3, 'y': 4, 'height': 2, 'width': 1}]}",,11,0000000000000000100100001001000011110000111100000101000001010000,talls_115_101,tall_115,wide_022,tall_101,wide_013,talls_115_101,talls_115_101,block-tower-viewing,13,664483,0.0-13.0,block_construction_build_components,build_components_build_recall_prolific_pilot_12_towers,6394c4a71be9ebcc632f18f1,1285-e4a57d43-41b7-4ca8-a339-8d2c54ee08c0,Prolific,trial_end,,,,,,,,,
54,640a27dc6e17e9023eee59a1,1678387041799.0,,build,"{'blocks': [{'x': 0, 'y': 0, 'height': 1, 'width': 2}, {'x': 1, 'y': 1, 'height': 2, 'width': 1}, {'x': 1, 'y': 3, 'height': 2, 'width': 1}, {'x': 0, 'y': 5, 'height': 1, 'width': 2}, {'x': 3, 'y': 0, 'height': 2, 'width': 1}, {'x': 2, 'y': 2, 'height': 1, 'width': 2}, {'x': 3, 'y': 3, 'height': 2, 'width': 1}, {'x': 2, 'y': 5, 'height': 1, 'width': 2}]}",,8,0000000000000000111100000101000001010000011100000101000011010000,talls_118_121,tall_118,wide_010,tall_121,wide_022,talls_118_121,talls_118_121,block-tower-building-undo,10,774915,0.0-10.0,block_construction_build_components,build_components_build_recall_prolific_pilot_12_towers,5aa0594cb5e2110001c70131,7455-c0152c2e-dbcb-40bf-9a61-b5ee8747935e,Prolific,trial_end,1678387160520.0,772519.0,"[{'x': 4, 'y': 0, 'width': 2, 'height': 1}, {'x': 7, 'y': 0, 'width': 1, 'height': 2}, {'x': 5, 'y': 1, 'width': 1, 'height': 2}, {'x': 6, 'y': 2, 'width': 2, 'height': 1}, {'x': 7, 'y': 3, 'width': 1, 'height': 2}, {'x': 5, 'y': 3, 'width': 1, 'height': 2}, {'x': 6, 'y': 5, 'width': 2, 'height': 1}, {'x': 4, 'y': 5, 'width': 2, 'height': 1}]","[[True, True, True, True, True, True, True, True, True, True], [True, True, True, True, True, True, True, True, True, True], [True, True, True, True, True, True, True, True, True, True], [True, True, True, True, True, True, True, True, True, True], [False, True, True, True, True, False, True, True, True, True], [False, False, False, False, False, False, True, True, True, True], [True, True, False, True, True, False, True, True, True, True], [False, False, False, False, False, False, True, True, True, True], [True, True, True, True, True, True, True, True, True, True], [True, True, True, True, True, True, True, True, True, True], [True, True, True, True, True, True, True, True, True, True], [True, True, True, True, True, True, True, True, True, True]]",trial_end,perfect-reconstruction-translation,118722.0,0.0,1.0
55,640a27dc6e17e9023eee59a2,1678387120825.0,,build,"{'blocks': [{'x': 0, 'y': 0, 'height': 1, 'width': 2}, {'x': 0, 'y': 1, 'height': 2, 'width': 1}, {'x': 0, 'y': 3, 'height': 1, 'width': 2}, {'x': 1, 'y': 4, 'height': 2, 'width': 1}, {'x': 2, 'y': 0, 'height': 1, 'width': 2}, {'x': 3, 'y': 1, 'height': 2, 'width': 1}, {'x': 2, 'y': 3, 'height': 1, 'width': 2}, {'x': 3, 'y': 4, 'height': 2, 'width': 1}]}",,12,0000000000000000010100000101000011110000100100001001000011110000,talls_100_097,tall_100,wide_013,tall_097,wide_006,talls_100_097,talls_100_097,block-tower-building-undo,14,709405,0.0-14.0,block_construction_build_components,build_components_build_recall_prolific_pilot_12_towers,6394c4a71be9ebcc632f18f1,1285-e4a57d43-41b7-4ca8-a339-8d2c54ee08c0,Prolific,trial_end,1678387160805.0,706313.0,"[{'x': 5, 'y': 0, 'width': 2, 'height': 1}, {'x': 3, 'y': 0, 'width': 2, 'height': 1}, {'x': 3, 'y': 1, 'width': 1, 'height': 2}, {'x': 6, 'y': 1, 'width': 1, 'height': 2}, {'x': 3, 'y': 3, 'width': 2, 'height': 1}, {'x': 5, 'y': 3, 'width': 2, 'height': 1}, {'x': 4, 'y': 4, 'width': 1, 'height': 2}, {'x': 6, 'y': 4, 'width': 1, 'height': 2}]","[[True, True, True, True, True, True, True, True, True, True], [True, True, True, True, True, True, True, True, True, True], [True, True, True, True, True, True, True, True, True, True], [False, False, False, False, True, True, True, True, True, True], [False, True, True, False, False, False, True, True, True, True], [False, True, True, False, True, True, True, True, True, True], [False, False, False, False, False, False, True, True, True, True], [True, True, True, True, True, True, True, True, True, True], [True, True, True, True, True, True, True, True, True, True], [True, True, True, True, True, True, True, True, True, True], [True, True, True, True, True, True, True, True, True, True], [True, True, True, True, True, True, True, True, True, True]]",trial_end,perfect-reconstruction-translation,39982.0,0.0,1.0
56,640a28046e17e9023eee59cc,1678387165253.0,,build,"{'blocks': [{'x': 0, 'y': 0, 'height': 1, 'width': 2}, {'x': 1, 'y': 1, 'height': 2, 'width': 1}, {'x': 0, 'y': 3, 'height': 1, 'width': 2}, {'x': 0, 'y': 4, 'height': 2, 'width': 1}, {'x': 2, 'y': 0, 'height': 1, 'width': 2}, {'x': 2, 'y': 1, 'height': 2, 'width': 1}, {'x': 2, 'y': 3, 'height': 2, 'width': 1}, {'x': 2, 'y': 5, 'height': 1, 'width': 2}]}",,9,0000000000000000101100001010000011100000011000000110000011110000,talls_111_125,tall_111,wide_008,tall_125,wide_015,talls_111_125,talls_111_125,block-tower-building-undo,11,814504,0.0-11.0,block_construction_build_components,build_components_build_recall_prolific_pilot_12_towers,5aa0594cb5e2110001c70131,7455-c0152c2e-dbcb-40bf-9a61-b5ee8747935e,Prolific,trial_end,1678387200055.0,812054.0,"[{'x': 6, 'y': 0, 'width': 2, 'height': 1}, {'x': 4, 'y': 0, 'width': 2, 'height': 1}, {'x': 5, 'y': 1, 'width': 2, 'height': 1}, {'x': 5, 'y': 2, 'width': 2, 'height': 1}, {'x': 4, 'y': 3, 'width': 2, 'height': 1}, {'x': 4, 'y': 4, 'width': 1, 'height': 2}, {'x': 6, 'y': 3, 'width': 1, 'height': 2}, {'x': 6, 'y': 5, 'width': 2, 'height': 1}]","[[True, True, True, True, True, True, True, True, True, True], [True, True, True, True, True, True, True, True, True, True], [True, True, True, True, True, True, True, True, True, True], [True, True, True, True, True, True, True, True, True, True], [False, True, True, False, False, False, True, True, True, True], [False, False, False, False, True, True, True, True, True, True], [False, False, False, False, False, False, True, True, True, True], [False, True, True, True, True, False, True, True, True, True], [True, True, True, True, True, True, True, True, True, True], [True, True, True, True, True, True, True, True, True, True], [True, True, True, True, True, True, True, True, True, True], [True, True, True, True, True, True, True, True, True, True]]",trial_end,perfect-reconstruction-translation,34803.0,0.0,0.0
57,640a28466e17e9023eee5a00,1678387204860.0,,build,"{'blocks': [{'x': 1, 'y': 0, 'height': 2, 'width': 1}, {'x': 0, 'y': 2, 'height': 1, 'width': 2}, {'x': 1, 'y': 3, 'height': 2, 'width': 1}, {'x': 0, 'y': 5, 'height': 1, 'width': 2}, {'x': 2, 'y': 0, 'height': 1, 'width': 2}, {'x': 3, 'y': 1, 'height': 2, 'width': 1}, {'x': 3, 'y': 3, 'height': 2, 'width': 1}, {'x': 2, 'y': 5, 'height': 1, 'width': 2}]}",,10,0000000000000000111100000101000001010000110100000101000001110000,talls_121_118,tall_121,wide_018,tall_118,wide_022,talls_121_118,talls_121_118,block-tower-building-undo,12,880620,0.0-12.0,block_construction_build_components,build_components_build_recall_prolific_pilot_12_towers,5aa0594cb5e2110001c70131,7455-c0152c2e-dbcb-40bf-9a61-b5ee8747935e,Prolific,trial_end,1678387266148.0,878147.0,"[{'x': 4, 'y': 0, 'width': 2, 'height': 1}, {'x': 3, 'y': 0, 'width': 1, 'height': 2}, {'x': 2, 'y': 2, 'width': 2, 'height': 1}, {'x': 3, 'y': 3, 'width': 1, 'height': 2}, {'x': 2, 'y': 5, 'width': 2, 'height': 1}, {'x': 5, 'y': 1, 'width': 1, 'height': 2}, {'x': 5, 'y': 3, 'width': 1, 'height': 2}, {'x': 4, 'y': 5, 'width': 2, 'height': 1}]","[[True, True, True, True, True, True, True, True, True, True], [True, True, True, True, True, True, True, True, True, True], [True, True, False, True, True, False, True, True, True, True], [False, False, False, False, False, False, True, True, True, True], [False, True, True, True, True, False, True, True, True, True], [False, False, False, False, False, False, True, True, True, True], [True, True, True, True, True, True, True, True, True, True], [True, True, True, True, True, True, True, True, True, True], [True, True, True, True, True, True, True, True, True, True], [True, True, True, True, True, True, True, True, True, True], [True, True, True, True, True, True, True, True, True, True], [True, True, True, True, True, True, True, True, True, True]]",trial_end,perfect-reconstruction-translation,61289.0,0.0,0.0
58,640a28576e17e9023eee5a0c,1678387270986.0,1678387286080.0,view,"{'blocks': [{'x': 0, 'y': 0, 'height': 2, 'width': 1}, {'x': 0, 'y': 2, 'height': 1, 'width': 2}, {'x': 1, 'y': 3, 'height': 2, 'width': 1}, {'x': 0, 'y': 5, 'height': 1, 'width': 2}, {'x': 3, 'y': 0, 'height': 2, 'width': 1}, {'x': 2, 'y': 2, 'height': 1, 'width': 2}, {'x': 2, 'y': 3, 'height': 1, 'width': 2}, {'x': 2, 'y': 4, 'height': 2, 'width': 1}]}",,11,0000000000000000111000000110000001110000111100001001000010010000,talls_122_115,tall_122,wide_024,tall_115,wide_019,talls_122_115,talls_122_115,block-tower-viewing,13,897442,0.0-13.0,block_construction_build_components,build_components_build_recall_prolific_pilot_12_towers,5aa0594cb5e2110001c70131,7455-c0152c2e-dbcb-40bf-9a61-b5ee8747935e,Prolific,trial_end,,,,,,,,,
59,640a28686e17e9023eee5a14,1678387287776.0,1678387302857.0,view,"{'blocks': [{'x': 1, 'y': 0, 'height': 2, 'width': 1}, {'x': 0, 'y': 2, 'height': 1, 'width': 2}, {'x': 1, 'y': 3, 'height': 2, 'width': 1}, {'x': 0, 'y': 5, 'height': 1, 'width': 2}, {'x': 2, 'y': 0, 'height': 1, 'width': 2}, {'x': 2, 'y': 1, 'height': 2, 'width': 1}, {'x': 2, 'y': 3, 'height': 1, 'width': 2}, {'x': 3, 'y': 4, 'height': 2, 'width': 1}]}",,12,0000000000000000110100000101000001110000111000000110000001110000,talls_121_100,tall_121,wide_019,tall_100,wide_018,talls_121_100,talls_121_100,block-tower-viewing,14,914241,0.0-14.0,block_construction_build_components,build_components_build_recall_prolific_pilot_12_towers,5aa0594cb5e2110001c70131,7455-c0152c2e-dbcb-40bf-9a61-b5ee8747935e,Prolific,trial_end,,,,,,,,,
60,640a2c026e17e9023eee5ac2,1678388210806.0,1678388225821.0,view,"{'blocks': [{'x': 1, 'y': 0, 'height': 2, 'width': 1}, {'x': 0, 'y': 2, 'height': 1, 'width': 2}, {'x': 0, 'y': 3, 'height': 2, 'width': 1}, {'x': 0, 'y': 5, 'height': 1, 'width': 2}, {'x': 2, 'y': 0, 'height': 2, 'width': 1}, {'x': 2, 'y': 2, 'height': 1, 'width': 2}, {'x': 3, 'y': 3, 'height': 2, 'width': 1}, {'x': 2, 'y': 5, 'height': 1, 'width': 2}]}",,1,0000000000000000111100001001000010010000111100000110000001100000,talls_126_122,tall_126,wide_023,tall_122,wide_024,talls_126_122,talls_126_122,block-tower-viewing,3,65356,0.0-3.0,block_construction_build_components,build_components_build_recall_prolific_pilot_12_towers,63ed00457ed1419748312833,5389-a8626964-ee52-4a7e-900a-f53837f09671,Prolific,trial_end,,,,,,,,,
61,640a2c036e17e9023eee5ac5,1678388213752.0,1678388228844.0,view,"{'blocks': [{'x': 1, 'y': 0, 'height': 2, 'width': 1}, {'x': 0, 'y': 2, 'height': 1, 'width': 2}, {'x': 1, 'y': 3, 'height': 2, 'width': 1}, {'x': 0, 'y': 5, 'height': 1, 'width': 2}, {'x': 2, 'y': 0, 'height': 1, 'width': 2}, {'x': 3, 'y': 1, 'height': 2, 'width': 1}, {'x': 3, 'y': 3, 'height': 2, 'width': 1}, {'x': 2, 'y': 5, 'height': 1, 'width': 2}]}",,1,0000000000000000111100000101000001010000110100000101000001110000,talls_121_118,tall_121,wide_018,tall_118,wide_022,talls_121_118,talls_121_118,block-tower-viewing,3,50275,0.0-3.0,block_construction_build_components,build_components_build_recall_prolific_pilot_12_towers,63bdd15afe3c9e58ea33b425,8807-25caac4d-9ea1-4b73-9f2e-941b748e0a71,Prolific,trial_end,,,,,,,,,
62,640a2c156e17e9023eee5ac9,1678388231444.0,1678388246838.0,view,"{'blocks': [{'x': 0, 'y': 0, 'height': 2, 'width': 1}, {'x': 0, 'y': 2, 'height': 1, 'width': 2}, {'x': 0, 'y': 3, 'height': 2, 'width': 1}, {'x': 0, 'y': 5, 'height': 1, 'width': 2}, {'x': 3, 'y': 0, 'height': 2, 'width': 1}, {'x': 2, 'y': 2, 'height': 1, 'width': 2}, {'x': 2, 'y': 3, 'height': 1, 'width': 2}, {'x': 2, 'y': 4, 'height': 2, 'width': 1}]}",,2,0000000000000000111000001010000010110000111100001001000010010000,talls_127_115,tall_127,wide_024,tall_115,wide_020,talls_127_115,talls_127_115,block-tower-viewing,4,68274,0.0-4.0,block_construction_build_components,build_components_build_recall_prolific_pilot_12_towers,63bdd15afe3c9e58ea33b425,8807-25caac4d-9ea1-4b73-9f2e-941b748e0a71,Prolific,trial_end,,,,,,,,,
63,640a2c266e17e9023eee5ad0,1678388249834.0,1678388264838.0,view,"{'blocks': [{'x': 0, 'y': 0, 'height': 1, 'width': 2}, {'x': 0, 'y': 1, 'height': 2, 'width': 1}, {'x': 0, 'y': 3, 'height': 1, 'width': 2}, {'x': 1, 'y': 4, 'height': 2, 'width': 1}, {'x': 2, 'y': 0, 'height': 1, 'width': 2}, {'x': 3, 'y': 1, 'height': 2, 'width': 1}, {'x': 2, 'y': 3, 'height': 1, 'width': 2}, {'x': 3, 'y': 4, 'height': 2, 'width': 1}]}",,3,0000000000000000010100000101000011110000100100001001000011110000,talls_100_097,tall_100,wide_013,tall_097,wide_006,talls_100_097,talls_100_097,block-tower-viewing,5,85282,0.0-5.0,block_construction_build_components,build_components_build_recall_prolific_pilot_12_towers,63bdd15afe3c9e58ea33b425,8807-25caac4d-9ea1-4b73-9f2e-941b748e0a71,Prolific,trial_end,,,,,,,,,
64,640a2c2e6e17e9023eee5ad4,1678388255613.0,1678388270638.0,view,"{'blocks': [{'x': 1, 'y': 0, 'height': 2, 'width': 1}, {'x': 0, 'y': 2, 'height': 1, 'width': 2}, {'x': 0, 'y': 3, 'height': 1, 'width': 2}, {'x': 1, 'y': 4, 'height': 2, 'width': 1}, {'x': 2, 'y': 0, 'height': 1, 'width': 2}, {'x': 2, 'y': 1, 'height': 2, 'width': 1}, {'x': 2, 'y': 3, 'height': 1, 'width': 2}, {'x': 3, 'y': 4, 'height': 2, 'width': 1}]}",,1,0000000000000000010100000101000011110000111000000110000001110000,talls_101_100,tall_101,wide_019,tall_100,wide_006,talls_101_100,talls_101_100,block-tower-viewing,3,111608,0.0-3.0,block_construction_build_components,build_components_build_recall_prolific_pilot_12_towers,58a0ce76b2a7180001f056fe,9096-ad3d434b-37be-4c50-9602-5185f33b9893,Prolific,trial_end,,,,,,,,,
65,640a2c3b6e17e9023eee5ae1,1678388227671.0,,build,"{'blocks': [{'x': 0, 'y': 0, 'height': 1, 'width': 2}, {'x': 1, 'y': 1, 'height': 2, 'width': 1}, {'x': 0, 'y': 3, 'height': 1, 'width': 2}, {'x': 0, 'y': 4, 'height': 2, 'width': 1}, {'x': 2, 'y': 0, 'height': 1, 'width': 2}, {'x': 2, 'y': 1, 'height': 2, 'width': 1}, {'x': 2, 'y': 3, 'height': 2, 'width': 1}, {'x': 2, 'y': 5, 'height': 1, 'width': 2}]}",,1,0000000000000000101100001010000011100000011000000110000011110000,talls_111_125,tall_111,wide_008,tall_125,wide_015,talls_111_125,talls_111_125,block-tower-building-undo,3,124929,0.0-3.0,block_construction_build_components,build_components_build_recall_prolific_pilot_12_towers,6310a577c2072bb8325998b7,5193-0b681b1f-d1f9-4042-8c7b-6bc2b5c548e5,Prolific,trial_end,1678388280477.0,121640.0,"[{'x': 3, 'y': 0, 'width': 2, 'height': 1}, {'x': 5, 'y': 0, 'width': 2, 'height': 1}, {'x': 4, 'y': 1, 'width': 1, 'height': 2}, {'x': 5, 'y': 1, 'width': 1, 'height': 2}, {'x': 3, 'y': 3, 'width': 2, 'height': 1}, {'x': 3, 'y': 4, 'width': 1, 'height': 2}, {'x': 5, 'y': 3, 'width': 1, 'height': 2}, {'x': 5, 'y': 5, 'width': 2, 'height': 1}]","[[True, True, True, True, True, True, True, True, True, True], [True, True, True, True, True, True, True, True, True, True], [True, True, True, True, True, True, True, True, True, True], [False, True, True, False, False, False, True, True, True, True], [False, False, False, False, True, True, True, True, True, True], [False, False, False, False, False, False, True, True, True, True], [False, True, True, True, True, False, True, True, True, True], [True, True, True, True, True, True, True, True, True, True], [True, True, True, True, True, True, True, True, True, True], [True, True, True, True, True, True, True, True, True, True], [True, True, True, True, True, True, True, True, True, True], [True, True, True, True, True, True, True, True, True, True]]",trial_end,perfect-reconstruction-translation,52806.0,0.0,2.0
66,640a2c3f6e17e9023eee5ae7,1678388272240.0,1678388287251.0,view,"{'blocks': [{'x': 0, 'y': 0, 'height': 1, 'width': 2}, {'x': 0, 'y': 1, 'height': 2, 'width': 1}, {'x': 0, 'y': 3, 'height': 1, 'width': 2}, {'x': 0, 'y': 4, 'height': 2, 'width': 1}, {'x': 2, 'y': 0, 'height': 1, 'width': 2}, {'x': 3, 'y': 1, 'height': 2, 'width': 1}, {'x': 2, 'y': 3, 'height': 1, 'width': 2}, {'x': 2, 'y': 4, 'height': 2, 'width': 1}]}",,2,0000000000000000101000001010000011110000100100001001000011110000,talls_114_111,tall_114,wide_013,tall_111,wide_014,talls_114_111,talls_114_111,block-tower-viewing,4,128221,0.0-4.0,block_construction_build_components,build_components_build_recall_prolific_pilot_12_towers,58a0ce76b2a7180001f056fe,9096-ad3d434b-37be-4c50-9602-5185f33b9893,Prolific,trial_end,,,,,,,,,
67,640a2c416e17e9023eee5aeb,1678388266840.0,,build,"{'blocks': [{'x': 0, 'y': 0, 'height': 1, 'width': 2}, {'x': 1, 'y': 1, 'height': 2, 'width': 1}, {'x': 0, 'y': 3, 'height': 1, 'width': 2}, {'x': 1, 'y': 4, 'height': 2, 'width': 1}, {'x': 2, 'y': 0, 'height': 1, 'width': 2}, {'x': 2, 'y': 1, 'height': 2, 'width': 1}, {'x': 2, 'y': 3, 'height': 1, 'width': 2}, {'x': 3, 'y': 4, 'height': 2, 'width': 1}]}",,4,0000000000000000010100000101000011110000011000000110000011110000,talls_097_100,tall_097,wide_008,tall_100,wide_006,talls_097_100,talls_097_100,block-tower-building-undo,6,112294,0.0-6.0,block_construction_build_components,build_components_build_recall_prolific_pilot_12_towers,63bdd15afe3c9e58ea33b425,8807-25caac4d-9ea1-4b73-9f2e-941b748e0a71,Prolific,trial_end,1678388288707.0,108896.0,"[{'x': 4, 'y': 0, 'width': 2, 'height': 1}, {'x': 6, 'y': 0, 'width': 2, 'height': 1}, {'x': 5, 'y': 1, 'width': 1, 'height': 2}, {'x': 6, 'y': 1, 'width': 1, 'height': 2}, {'x': 4, 'y': 3, 'width': 2, 'height': 1}, {'x': 6, 'y': 3, 'width': 2, 'height': 1}, {'x': 5, 'y': 4, 'width': 1, 'height': 2}, {'x': 7, 'y': 4, 'width': 1, 'height': 2}]","[[True, True, True, True, True, True, True, True, True, True], [True, True, True, True, True, True, True, True, True, True], [True, True, True, True, True, True, True, True, True, True], [True, True, True, True, True, True, True, True, True, True], [False, True, True, False, True, True, True, True, True, True], [False, False, False, False, False, False, True, True, True, True], [False, False, False, False, True, True, True, True, True, True], [False, True, True, False, False, False, True, True, True, True], [True, True, True, True, True, True, True, True, True, True], [True, True, True, True, True, True, True, True, True, True], [True, True, True, True, True, True, True, True, True, True], [True, True, True, True, True, True, True, True, True, True]]",trial_end,perfect-reconstruction-translation,21867.0,0.0,0.0
68,640a2c566e17e9023eee5b04,1678388293859.0,,build,"{'blocks': [{'x': 0, 'y': 0, 'height': 2, 'width': 1}, {'x': 0, 'y': 2, 'height': 1, 'width': 2}, {'x': 0, 'y': 3, 'height': 2, 'width': 1}, {'x': 0, 'y': 5, 'height': 1, 'width': 2}, {'x': 2, 'y': 0, 'height': 1, 'width': 2}, {'x': 2, 'y': 1, 'height': 2, 'width': 1}, {'x': 2, 'y': 3, 'height': 2, 'width': 1}, {'x': 2, 'y': 5, 'height': 1, 'width': 2}]}",,5,0000000000000000111100001010000010100000111000001010000010110000,talls_127_125,tall_127,wide_020,tall_125,wide_025,talls_127_125,talls_127_125,block-tower-building-undo,7,133328,0.0-7.0,block_construction_build_components,build_components_build_recall_prolific_pilot_12_towers,63bdd15afe3c9e58ea33b425,8807-25caac4d-9ea1-4b73-9f2e-941b748e0a71,Prolific,trial_end,1678388307865.0,128054.0,"[{'x': 7, 'y': 0, 'width': 2, 'height': 1}, {'x': 5, 'y': 0, 'width': 1, 'height': 2}, {'x': 5, 'y': 2, 'width': 2, 'height': 1}, {'x': 7, 'y': 1, 'width': 1, 'height': 2}, {'x': 7, 'y': 3, 'width': 1, 'height': 2}, {'x': 5, 'y': 3, 'width': 1, 'height': 2}, {'x': 5, 'y': 5, 'width': 2, 'height': 1}, {'x': 7, 'y': 5, 'width': 2, 'height': 1}]","[[True, True, True, True, True, True, True, True, True, True], [True, True, True, True, True, True, True, True, True, True], [True, True, True, True, True, True, True, True, True, True], [True, True, True, True, True, True, True, True, True, True], [True, True, True, True, True, True, True, True, True, True], [False, False, False, False, False, False, True, True, True, True], [True, True, False, True, True, False, True, True, True, True], [False, False, False, False, False, False, True, True, True, True], [False, True, True, True, True, False, True, True, True, True], [True, True, True, True, True, True, True, True, True, True], [True, True, True, True, True, True, True, True, True, True], [True, True, True, True, True, True, True, True, True, True]]",trial_end,perfect-reconstruction-translation,14007.0,0.0,0.0
69,640a2c5a6e17e9023eee5b07,1678388326275.0,1678388343700.0,view,"{'blocks': [{'x': 1, 'y': 0, 'height': 2, 'width': 1}, {'x': 0, 'y': 2, 'height': 1, 'width': 2}, {'x': 1, 'y': 3, 'height': 2, 'width': 1}, {'x': 0, 'y': 5, 'height': 1, 'width': 2}, {'x': 2, 'y': 0, 'height': 1, 'width': 2}, {'x': 2, 'y': 1, 'height': 2, 'width': 1}, {'x': 2, 'y': 3, 'height': 1, 'width': 2}, {'x': 3, 'y': 4, 'height': 2, 'width': 1}]}",,1,0000000000000000110100000101000001110000111000000110000001110000,talls_121_100,tall_121,wide_019,tall_100,wide_018,talls_121_100,talls_121_100,block-tower-viewing,3,129836,0.0-3.0,block_construction_build_components,build_components_build_recall_prolific_pilot_12_towers,5ded58a8217786000b2b2511,4249-d7a1338c-6a2e-45f8-a1b3-909d45cd8e59,Prolific,trial_end,,,,,,,,,
70,640a2c5a6e17e9023eee5b09,1678388285111.0,,build,"{'blocks': [{'x': 0, 'y': 0, 'height': 2, 'width': 1}, {'x': 0, 'y': 2, 'height': 1, 'width': 2}, {'x': 0, 'y': 3, 'height': 1, 'width': 2}, {'x': 0, 'y': 4, 'height': 2, 'width': 1}, {'x': 2, 'y': 0, 'height': 1, 'width': 2}, {'x': 2, 'y': 1, 'height': 2, 'width': 1}, {'x': 2, 'y': 3, 'height': 1, 'width': 2}, {'x': 2, 'y': 4, 'height': 2, 'width': 1}]}",,2,0000000000000000101000001010000011110000111000001010000010110000,talls_116_114,tall_116,wide_020,tall_114,wide_014,talls_116_114,talls_116_114,block-tower-building-undo,4,155990,0.0-4.0,block_construction_build_components,build_components_build_recall_prolific_pilot_12_towers,6310a577c2072bb8325998b7,5193-0b681b1f-d1f9-4042-8c7b-6bc2b5c548e5,Prolific,trial_end,1678388311484.0,152647.0,"[{'x': 3, 'y': 0, 'width': 1, 'height': 2}, {'x': 5, 'y': 0, 'width': 2, 'height': 1}, {'x': 5, 'y': 1, 'width': 1, 'height': 2}, {'x': 5, 'y': 3, 'width': 2, 'height': 1}, {'x': 5, 'y': 4, 'width': 1, 'height': 2}, {'x': 3, 'y': 2, 'width': 2, 'height': 1}, {'x': 3, 'y': 3, 'width': 2, 'height': 1}, {'x': 3, 'y': 4, 'width': 1, 'height': 2}]","[[True, True, True, True, True, True, True, True, True, True], [True, True, True, True, True, True, True, True, True, True], [True, True, True, True, True, True, True, True, True, True], [False, False, False, False, False, False, True, True, True, True], [True, True, False, False, True, True, True, True, True, True], [False, False, False, False, False, False, True, True, True, True], [False, True, True, False, True, True, True, True, True, True], [True, True, True, True, True, True, True, True, True, True], [True, True, True, True, True, True, True, True, True, True], [True, True, True, True, True, True, True, True, True, True], [True, True, True, True, True, True, True, True, True, True], [True, True, True, True, True, True, True, True, True, True]]",trial_end,perfect-reconstruction-translation,26374.0,0.0,0.0
71,640a2c6b6e17e9023eee5b13,1678388345303.0,1678388360321.0,view,"{'blocks': [{'x': 1, 'y': 0, 'height': 2, 'width': 1}, {'x': 0, 'y': 2, 'height': 1, 'width': 2}, {'x': 0, 'y': 3, 'height': 2, 'width': 1}, {'x': 0, 'y': 5, 'height': 1, 'width': 2}, {'x': 2, 'y': 0, 'height': 2, 'width': 1}, {'x': 2, 'y': 2, 'height': 1, 'width': 2}, {'x': 3, 'y': 3, 'height': 2, 'width': 1}, {'x': 2, 'y': 5, 'height': 1, 'width': 2}]}",,2,0000000000000000111100001001000010010000111100000110000001100000,talls_126_122,tall_126,wide_023,tall_122,wide_024,talls_126_122,talls_126_122,block-tower-viewing,4,146459,0.0-4.0,block_construction_build_components,build_components_build_recall_prolific_pilot_12_towers,5ded58a8217786000b2b2511,4249-d7a1338c-6a2e-45f8-a1b3-909d45cd8e59,Prolific,trial_end,,,,,,,,,
72,640a2c6b6e17e9023eee5b15,1678388316172.0,1678388331242.0,view,"{'blocks': [{'x': 0, 'y': 0, 'height': 1, 'width': 2}, {'x': 0, 'y': 1, 'height': 2, 'width': 1}, {'x': 0, 'y': 3, 'height': 1, 'width': 2}, {'x': 1, 'y': 4, 'height': 2, 'width': 1}, {'x': 2, 'y': 0, 'height': 2, 'width': 1}, {'x': 2, 'y': 2, 'height': 1, 'width': 2}, {'x': 3, 'y': 3, 'height': 2, 'width': 1}, {'x': 2, 'y': 5, 'height': 1, 'width': 2}]}",,3,0000000000000000011100000101000011010000101100001010000011100000,talls_100_122,tall_100,wide_015,tall_122,wide_010,talls_100_122,talls_100_122,block-tower-viewing,5,172743,0.0-5.0,block_construction_build_components,build_components_build_recall_prolific_pilot_12_towers,6310a577c2072bb8325998b7,5193-0b681b1f-d1f9-4042-8c7b-6bc2b5c548e5,Prolific,trial_end,,,,,,,,,
73,640a2c7b6e17e9023eee5b25,1678388361929.0,1678388376937.0,view,"{'blocks': [{'x': 0, 'y': 0, 'height': 2, 'width': 1}, {'x': 0, 'y': 2, 'height': 1, 'width': 2}, {'x': 0, 'y': 3, 'height': 1, 'width': 2}, {'x': 1, 'y': 4, 'height': 2, 'width': 1}, {'x': 2, 'y': 0, 'height': 2, 'width': 1}, {'x': 2, 'y': 2, 'height': 1, 'width': 2}, {'x': 2, 'y': 3, 'height': 2, 'width': 1}, {'x': 2, 'y': 5, 'height': 1, 'width': 2}]}",,3,0000000000000000011100000110000011100000111100001010000010100000,talls_102_127,tall_102,wide_025,tall_127,wide_011,talls_102_127,talls_102_127,block-tower-viewing,5,163075,0.0-5.0,block_construction_build_components,build_components_build_recall_prolific_pilot_12_towers,5ded58a8217786000b2b2511,4249-d7a1338c-6a2e-45f8-a1b3-909d45cd8e59,Prolific,trial_end,,,,,,,,,
