,Unnamed: 0_x,_id_x,trial_start_time_x,trial_finish_time,condition,stimulus,response,trial_num,block_str,tower_id,tower_A_tall_id,tower_A_wide_id,tower_B_tall_id,tower_B_wide_id,tower_id_tall,composite_id,trial_type,trial_index,time_elapsed,internal_node_id,experimentName_x,iterationName_x,workerID_x,gameID,studyLocation_x,datatype_x,timeAbsolute,timeRelative,blocks,discreteWorld,eventType,endReason,relative_time,rep,n_resets,stim_wide,square_map,alignedBlockMaps_x,alignedBlockMapsHashable_x,paddedBlockMaps_x,matched_recall,alignedBlockMapsHashable_y,Unnamed: 0_y,_id_y,experimentName_y,iterationName_y,workerID_y,studyLocation_y,n_resets_for_tower,n_undo_for_tower,towerDetails,nTower,alignedTowerBlocks,absolute_time,trial_start_time_y,relative_time_trial,time_since_last_submit,time_since_last_reset,datatype_y,n_block,cumulative_resets_across_submissions,tower_details,alignedBlockMaps_y,paddedBlockMaps_y,bestMatch,bestMatchF1,bestMatchCondition,bestMatchAlignment,perfectMatch,goodMatch,bestMatchF1Bin,matched_meeting_threshold_0.10,matched_meeting_threshold_0.15,matched_meeting_threshold_0.20,matched_meeting_threshold_0.25,matched_meeting_threshold_0.30,matched_meeting_threshold_0.35,matched_meeting_threshold_0.40,matched_meeting_threshold_0.45,matched_meeting_threshold_0.50,matched_meeting_threshold_0.55,matched_meeting_threshold_0.60,matched_meeting_threshold_0.65,matched_meeting_threshold_0.70,matched_meeting_threshold_0.75,matched_meeting_threshold_0.80,matched_meeting_threshold_0.85,matched_meeting_threshold_0.90,matched_meeting_threshold_0.95,matched_to_any
0,0,64274b0ee158fd5aa12435c5,1680296701924.0,1680296716950.0,view,"{'blocks': [{'x': 0, 'y': 0, 'height': 1, 'width': 2}, {'x': 0, 'y': 1, 'height': 2, 'width': 1}, {'x': 0, 'y': 3, 'height': 1, 'width': 2}, {'x': 0, 'y': 4, 'height': 2, 'width': 1}, {'x': 2, 'y': 0, 'height': 1, 'width': 2}, {'x': 3, 'y': 1, 'height': 2, 'width': 1}, {'x': 2, 'y': 3, 'height': 1, 'width': 2}, {'x': 2, 'y': 4, 'height': 2, 'width': 1}]}",,1,0000000000000000101000001010000011110000100100001001000011110000,talls_114_111,tall_114,wide_013,tall_111,wide_014,talls_114_111,talls_114_111,block-tower-viewing,3,59032,0.0-3.0,block_construction_build_components,build_components_build_recall_prolific_pilot_6_towers_2_rep,6105bec69dde271194d2d5d6,3078-670e6c52-abc7-4109-9187-44f49d80bdea,Prolific,trial_end,,,,,,,,1.0,,"[{'x': 0, 'y': 0, 'height': 1, 'width': 2}, {'x': 2, 'y': 0, 'height': 1, 'width': 2}, {'x': 0, 'y': 1, 'height': 2, 'width': 1}, {'x': 3, 'y': 1, 'height': 2, 'width': 1}, {'x': 0, 'y': 3, 'height': 1, 'width': 2}, {'x': 2, 'y': 3, 'height': 1, 'width': 2}, {'x': 0, 'y': 4, 'height': 2, 'width': 1}, {'x': 2, 'y': 4, 'height': 2, 'width': 1}]","[[1 0 1 0]
 [1 0 1 0]
 [1 1 1 1]
 [1 0 0 1]
 [1 0 0 1]
 [1 1 1 1]]","[[0 0 0 0 0 0 0 0 0 0]
 [0 0 0 0 0 0 0 0 0 0]
 [0 0 0 0 0 0 0 0 0 0]
 [0 0 0 0 0 0 0 0 0 0]
 [0 0 0 0 0 0 0 0 0 0]
 [0 0 0 0 0 0 0 0 0 0]
 [1 0 1 0 0 0 0 0 0 0]
 [1 0 1 0 0 0 0 0 0 0]
 [1 1 1 1 0 0 0 0 0 0]
 [1 0 0 1 0 0 0 0 0 0]
 [1 0 0 1 0 0 0 0 0 0]
 [1 1 1 1 0 0 0 0 0 0]]","((0, 0, 0, 0, 0, 0, 0, 0, 0, 0), (0, 0, 0, 0, 0, 0, 0, 0, 0, 0), (0, 0, 0, 0, 0, 0, 0, 0, 0, 0), (0, 0, 0, 0, 0, 0, 0, 0, 0, 0), (0, 0, 0, 0, 0, 0, 0, 0, 0, 0), (0, 0, 0, 0, 0, 0, 0, 0, 0, 0), (1, 0, 1, 0, 0, 0, 0, 0, 0, 0), (1, 0, 1, 0, 0, 0, 0, 0, 0, 0), (1, 1, 1, 1, 0, 0, 0, 0, 0, 0), (1, 0, 0, 1, 0, 0, 0, 0, 0, 0), (1, 0, 0, 1, 0, 0, 0, 0, 0, 0), (1, 1, 1, 1, 0, 0, 0, 0, 0, 0))","[[0. 0. 0. 0. 0. 0. 0. 0. 0. 0. 0. 0. 0. 0. 0. 0. 0. 0.]
 [0. 0. 0. 0. 0. 0. 0. 0. 0. 0. 0. 0. 0. 0. 0. 0. 0. 0.]
 [0. 0. 0. 0. 0. 0. 0. 0. 0. 0. 0. 0. 0. 0. 0. 0. 0. 0.]
 [0. 0. 0. 0. 0. 0. 0. 0. 0. 0. 0. 0. 0. 0. 0. 0. 0. 0.]
 [0. 0. 0. 0. 0. 0. 0. 0. 0. 0. 0. 0. 0. 0. 0. 0. 0. 0.]
 [0. 0. 0. 0. 0. 0. 0. 0. 0. 0. 0. 0. 0. 0. 0. 0. 0. 0.]
 [0. 0. 0. 0. 0. 0. 0. 1. 0. 1. 0. 0. 0. 0. 0. 0. 0. 0.]
 [0. 0. 0. 0. 0. 0. 0. 1. 0. 1. 0. 0. 0. 0. 0. 0. 0. 0.]
 [0. 0. 0. 0. 0. 0. 0. 1. 1. 1. 1. 0. 0. 0. 0. 0. 0. 0.]
 [0. 0. 0. 0. 0. 0. 0. 1. 0. 0. 1. 0. 0. 0. 0. 0. 0. 0.]
 [0. 0. 0. 0. 0. 0. 0. 1. 0. 0. 1. 0. 0. 0. 0. 0. 0. 0.]
 [0. 0. 0. 0. 0. 0. 0. 1. 1. 1. 1. 0. 0. 0. 0. 0. 0. 0.]]",True,"((0, 0, 0, 0, 0, 0, 0, 0, 0, 0), (0, 0, 0, 0, 0, 0, 0, 0, 0, 0), (0, 0, 0, 0, 0, 0, 0, 0, 0, 0), (0, 0, 0, 0, 0, 0, 0, 0, 0, 0), (0, 0, 0, 0, 0, 0, 0, 0, 0, 0), (0, 0, 0, 0, 0, 0, 0, 0, 0, 0), (0, 0, 0, 0, 0, 0, 0, 0, 0, 0), (1, 1, 0, 0, 1, 1, 0, 0, 0, 0), (0, 1, 1, 1, 1, 0, 0, 0, 0, 0), (0, 1, 0, 0, 1, 0, 0, 0, 0, 0), (0, 1, 0, 0, 1, 0, 0, 0, 0, 0), (0, 1, 1, 1, 1, 0, 0, 0, 0, 0))",7.0,64274d6ee158fd5aa1243894,block_construction_build_components,build_components_build_recall_prolific_pilot_6_towers_2_rep,6105bec69dde271194d2d5d6,Prolific,0.0,1.0,"{'blocks': [{'x': 6, 'y': 0, 'width': 2, 'height': 1}, {'x': 8, 'y': 0, 'width': 2, 'height': 1}, {'x': 6, 'y': 1, 'width': 1, 'height': 2}, {'x': 9, 'y': 1, 'width': 1, 'height': 2}, {'x': 6, 'y': 3, 'width': 2, 'height': 1}, {'x': 8, 'y': 3, 'width': 2, 'height': 1}, {'x': 9, 'y': 4, 'width': 2, 'height': 1}, {'x': 5, 'y': 4, 'width': 2, 'height': 1}], 'discreteWorld': [[True, True, True, True, True, True, True, True, True, True], [True, True, True, True, True, True, True, True, True, True], [True, True, True, True, True, True, True, True, True, True], [True, True, True, True, True, True, True, True, True, True], [True, True, True, True, True, True, True, True, True, True], [True, True, True, True, False, True, True, True, True, True], [False, False, False, False, False, True, True, True, True, True], [False, True, True, False, True, True, True, True, True, True], [False, True, True, False, True, True, True, True, True, True], [False, False, False, False, False, True, True, True, True, True], [True, True, True, True, False, True, True, True, True, True], [True, True, True, True, True, True, True, True, True, True]], 'n_block': 8}",4.0,"[{'height': 1, 'width': 2, 'x': 1, 'y': 0}, {'height': 1, 'width': 2, 'x': 3, 'y': 0}, {'height': 2, 'width': 1, 'x': 1, 'y': 1}, {'height': 2, 'width': 1, 'x': 4, 'y': 1}, {'height': 1, 'width': 2, 'x': 1, 'y': 3}, {'height': 1, 'width': 2, 'x': 3, 'y': 3}, {'height': 1, 'width': 2, 'x': 4, 'y': 4}, {'height': 1, 'width': 2, 'x': 0, 'y': 4}]",1680297326402.0,1680297113171.0,213231.0,44174.0,44174.0,recalled_tower,8.0,1.0,"{'blocks': [{'x': 6, 'y': 0, 'width': 2, 'height': 1}, {'x': 8, 'y': 0, 'width': 2, 'height': 1}, {'x': 6, 'y': 1, 'width': 1, 'height': 2}, {'x': 9, 'y': 1, 'width': 1, 'height': 2}, {'x': 6, 'y': 3, 'width': 2, 'height': 1}, {'x': 8, 'y': 3, 'width': 2, 'height': 1}, {'x': 9, 'y': 4, 'width': 2, 'height': 1}, {'x': 5, 'y': 4, 'width': 2, 'height': 1}], 'discreteWorld': [[True, True, True, True, True, True, True, True, True, True], [True, True, True, True, True, True, True, True, True, True], [True, True, True, True, True, True, True, True, True, True], [True, True, True, True, True, True, True, True, True, True], [True, True, True, True, True, True, True, True, True, True], [True, True, True, True, False, True, True, True, True, True], [False, False, False, False, False, True, True, True, True, True], [False, True, True, False, True, True, True, True, True, True], [False, True, True, False, True, True, True, True, True, True], [False, False, False, False, False, True, True, True, True, True], [True, True, True, True, False, True, True, True, True, True], [True, True, True, True, True, True, True, True, True, True]], 'n_block': 8}","[[0 0 0 0 0 0 0 0 0 0]
 [0 0 0 0 0 0 0 0 0 0]
 [0 0 0 0 0 0 0 0 0 0]
 [0 0 0 0 0 0 0 0 0 0]
 [0 0 0 0 0 0 0 0 0 0]
 [0 0 0 0 0 0 0 0 0 0]
 [0 0 0 0 0 0 0 0 0 0]
 [1 1 0 0 1 1 0 0 0 0]
 [0 1 1 1 1 0 0 0 0 0]
 [0 1 0 0 1 0 0 0 0 0]
 [0 1 0 0 1 0 0 0 0 0]
 [0 1 1 1 1 0 0 0 0 0]]","[[0. 0. 0. 0. 0. 0. 0. 0. 0. 0. 0. 0. 0. 0. 0. 0. 0. 0.]
 [0. 0. 0. 0. 0. 0. 0. 0. 0. 0. 0. 0. 0. 0. 0. 0. 0. 0.]
 [0. 0. 0. 0. 0. 0. 0. 0. 0. 0. 0. 0. 0. 0. 0. 0. 0. 0.]
 [0. 0. 0. 0. 0. 0. 0. 0. 0. 0. 0. 0. 0. 0. 0. 0. 0. 0.]
 [0. 0. 0. 0. 0. 0. 0. 0. 0. 0. 0. 0. 0. 0. 0. 0. 0. 0.]
 [0. 0. 0. 0. 0. 0. 0. 0. 0. 0. 0. 0. 0. 0. 0. 0. 0. 0.]
 [0. 0. 0. 0. 0. 0. 0. 0. 0. 0. 0. 0. 0. 0. 0. 0. 0. 0.]
 [1. 1. 0. 0. 1. 1. 0. 0. 0. 0. 0. 0. 0. 0. 0. 0. 0. 0.]
 [0. 1. 1. 1. 1. 0. 0. 0. 0. 0. 0. 0. 0. 0. 0. 0. 0. 0.]
 [0. 1. 0. 0. 1. 0. 0. 0. 0. 0. 0. 0. 0. 0. 0. 0. 0. 0.]
 [0. 1. 0. 0. 1. 0. 0. 0. 0. 0. 0. 0. 0. 0. 0. 0. 0. 0.]
 [0. 1. 1. 1. 1. 0. 0. 0. 0. 0. 0. 0. 0. 0. 0. 0. 0. 0.]]",talls_114_111,0.8125,view,"[[0 0 0 0 0 0 0 0 0 0 0 0 0 0 0 0 0 0]
 [0 0 0 0 0 0 0 0 0 0 0 0 0 0 0 0 0 0]
 [0 0 0 0 0 0 0 0 0 0 0 0 0 0 0 0 0 0]
 [0 0 0 0 0 0 0 0 0 0 0 0 0 0 0 0 0 0]
 [0 0 0 0 0 0 0 0 0 0 0 0 0 0 0 0 0 0]
 [0 0 0 0 0 0 0 0 0 0 0 0 0 0 0 0 0 0]
 [0 0 0 0 0 0 0 0 0 0 0 0 0 0 0 0 0 0]
 [0 0 0 0 0 0 1 1 0 0 1 1 0 0 0 0 0 0]
 [0 0 0 0 0 0 0 1 1 1 1 0 0 0 0 0 0 0]
 [0 0 0 0 0 0 0 1 0 0 1 0 0 0 0 0 0 0]
 [0 0 0 0 0 0 0 1 0 0 1 0 0 0 0 0 0 0]
 [0 0 0 0 0 0 0 1 1 1 1 0 0 0 0 0 0 0]]",False,True,0.8-0.9,True,True,True,True,True,True,True,True,True,True,True,True,True,True,True,False,False,False,True
1,1,64274b4ee158fd5aa12435d2,1680296718558.0,,build,"{'blocks': [{'x': 0, 'y': 0, 'height': 1, 'width': 2}, {'x': 1, 'y': 1, 'height': 2, 'width': 1}, {'x': 0, 'y': 3, 'height': 1, 'width': 2}, {'x': 1, 'y': 4, 'height': 2, 'width': 1}, {'x': 2, 'y': 0, 'height': 1, 'width': 2}, {'x': 2, 'y': 1, 'height': 2, 'width': 1}, {'x': 2, 'y': 3, 'height': 1, 'width': 2}, {'x': 3, 'y': 4, 'height': 2, 'width': 1}]}",,2,0000000000000000010100000101000011110000011000000110000011110000,talls_097_100,tall_097,wide_008,tall_100,wide_006,talls_097_100,talls_097_100,block-tower-building-undo,4,123179,0.0-4.0,block_construction_build_components,build_components_build_recall_prolific_pilot_6_towers_2_rep,6105bec69dde271194d2d5d6,3078-670e6c52-abc7-4109-9187-44f49d80bdea,Prolific,trial_end,1680296778095.0,119945.0,"[{'x': 6, 'y': 0, 'width': 2, 'height': 1}, {'x': 4, 'y': 0, 'width': 2, 'height': 1}, {'x': 6, 'y': 1, 'width': 1, 'height': 2}, {'x': 5, 'y': 1, 'width': 1, 'height': 2}, {'x': 4, 'y': 3, 'width': 2, 'height': 1}, {'x': 6, 'y': 3, 'width': 2, 'height': 1}, {'x': 5, 'y': 4, 'width': 1, 'height': 2}, {'x': 7, 'y': 4, 'width': 1, 'height': 2}]","[[True, True, True, True, True, True, True, True, True, True], [True, True, True, True, True, True, True, True, True, True], [True, True, True, True, True, True, True, True, True, True], [True, True, True, True, True, True, True, True, True, True], [False, True, True, False, True, True, True, True, True, True], [False, False, False, False, False, False, True, True, True, True], [False, False, False, False, True, True, True, True, True, True], [False, True, True, False, False, False, True, True, True, True], [True, True, True, True, True, True, True, True, True, True], [True, True, True, True, True, True, True, True, True, True], [True, True, True, True, True, True, True, True, True, True], [True, True, True, True, True, True, True, True, True, True]]",trial_end,perfect-reconstruction-translation,59538.0,1.0,1.0,"[{'x': 0, 'y': 0, 'height': 1, 'width': 2}, {'x': 2, 'y': 0, 'height': 1, 'width': 2}, {'x': 1, 'y': 1, 'height': 2, 'width': 1}, {'x': 2, 'y': 1, 'height': 2, 'width': 1}, {'x': 0, 'y': 3, 'height': 1, 'width': 2}, {'x': 2, 'y': 3, 'height': 1, 'width': 2}, {'x': 1, 'y': 4, 'height': 2, 'width': 1}, {'x': 3, 'y': 4, 'height': 2, 'width': 1}]","[[0 1 0 1]
 [0 1 0 1]
 [1 1 1 1]
 [0 1 1 0]
 [0 1 1 0]
 [1 1 1 1]]","[[0 0 0 0 0 0 0 0 0 0]
 [0 0 0 0 0 0 0 0 0 0]
 [0 0 0 0 0 0 0 0 0 0]
 [0 0 0 0 0 0 0 0 0 0]
 [0 0 0 0 0 0 0 0 0 0]
 [0 0 0 0 0 0 0 0 0 0]
 [0 1 0 1 0 0 0 0 0 0]
 [0 1 0 1 0 0 0 0 0 0]
 [1 1 1 1 0 0 0 0 0 0]
 [0 1 1 0 0 0 0 0 0 0]
 [0 1 1 0 0 0 0 0 0 0]
 [1 1 1 1 0 0 0 0 0 0]]","((0, 0, 0, 0, 0, 0, 0, 0, 0, 0), (0, 0, 0, 0, 0, 0, 0, 0, 0, 0), (0, 0, 0, 0, 0, 0, 0, 0, 0, 0), (0, 0, 0, 0, 0, 0, 0, 0, 0, 0), (0, 0, 0, 0, 0, 0, 0, 0, 0, 0), (0, 0, 0, 0, 0, 0, 0, 0, 0, 0), (0, 1, 0, 1, 0, 0, 0, 0, 0, 0), (0, 1, 0, 1, 0, 0, 0, 0, 0, 0), (1, 1, 1, 1, 0, 0, 0, 0, 0, 0), (0, 1, 1, 0, 0, 0, 0, 0, 0, 0), (0, 1, 1, 0, 0, 0, 0, 0, 0, 0), (1, 1, 1, 1, 0, 0, 0, 0, 0, 0))","[[0. 0. 0. 0. 0. 0. 0. 0. 0. 0. 0. 0. 0. 0. 0. 0. 0. 0.]
 [0. 0. 0. 0. 0. 0. 0. 0. 0. 0. 0. 0. 0. 0. 0. 0. 0. 0.]
 [0. 0. 0. 0. 0. 0. 0. 0. 0. 0. 0. 0. 0. 0. 0. 0. 0. 0.]
 [0. 0. 0. 0. 0. 0. 0. 0. 0. 0. 0. 0. 0. 0. 0. 0. 0. 0.]
 [0. 0. 0. 0. 0. 0. 0. 0. 0. 0. 0. 0. 0. 0. 0. 0. 0. 0.]
 [0. 0. 0. 0. 0. 0. 0. 0. 0. 0. 0. 0. 0. 0. 0. 0. 0. 0.]
 [0. 0. 0. 0. 0. 0. 0. 0. 1. 0. 1. 0. 0. 0. 0. 0. 0. 0.]
 [0. 0. 0. 0. 0. 0. 0. 0. 1. 0. 1. 0. 0. 0. 0. 0. 0. 0.]
 [0. 0. 0. 0. 0. 0. 0. 1. 1. 1. 1. 0. 0. 0. 0. 0. 0. 0.]
 [0. 0. 0. 0. 0. 0. 0. 0. 1. 1. 0. 0. 0. 0. 0. 0. 0. 0.]
 [0. 0. 0. 0. 0. 0. 0. 0. 1. 1. 0. 0. 0. 0. 0. 0. 0. 0.]
 [0. 0. 0. 0. 0. 0. 0. 1. 1. 1. 1. 0. 0. 0. 0. 0. 0. 0.]]",False,,,,,,,,,,,,,,,,,,,,,,,,no_match,0.0,,,False,,,False,False,False,False,False,False,False,False,False,False,False,False,False,False,False,False,False,False,False
2,2,64274b5ee158fd5aa12435d3,1680296782701.0,1680296797703.0,view,"{'blocks': [{'x': 1, 'y': 0, 'height': 2, 'width': 1}, {'x': 0, 'y': 2, 'height': 1, 'width': 2}, {'x': 1, 'y': 3, 'height': 2, 'width': 1}, {'x': 0, 'y': 5, 'height': 1, 'width': 2}, {'x': 3, 'y': 0, 'height': 2, 'width': 1}, {'x': 2, 'y': 2, 'height': 1, 'width': 2}, {'x': 2, 'y': 3, 'height': 1, 'width': 2}, {'x': 3, 'y': 4, 'height': 2, 'width': 1}]}",,3,0000000000000000110100000101000001110000111100000101000001010000,talls_121_101,tall_121,wide_022,tall_101,wide_018,talls_121_101,talls_121_101,block-tower-viewing,5,139785,0.0-5.0,block_construction_build_components,build_components_build_recall_prolific_pilot_6_towers_2_rep,6105bec69dde271194d2d5d6,3078-670e6c52-abc7-4109-9187-44f49d80bdea,Prolific,trial_end,,,,,,,,1.0,,"[{'x': 1, 'y': 0, 'height': 2, 'width': 1}, {'x': 3, 'y': 0, 'height': 2, 'width': 1}, {'x': 0, 'y': 2, 'height': 1, 'width': 2}, {'x': 2, 'y': 2, 'height': 1, 'width': 2}, {'x': 1, 'y': 3, 'height': 2, 'width': 1}, {'x': 2, 'y': 3, 'height': 1, 'width': 2}, {'x': 3, 'y': 4, 'height': 2, 'width': 1}, {'x': 0, 'y': 5, 'height': 1, 'width': 2}]","[[1 1 0 1]
 [0 1 0 1]
 [0 1 1 1]
 [1 1 1 1]
 [0 1 0 1]
 [0 1 0 1]]","[[0 0 0 0 0 0 0 0 0 0]
 [0 0 0 0 0 0 0 0 0 0]
 [0 0 0 0 0 0 0 0 0 0]
 [0 0 0 0 0 0 0 0 0 0]
 [0 0 0 0 0 0 0 0 0 0]
 [0 0 0 0 0 0 0 0 0 0]
 [1 1 0 1 0 0 0 0 0 0]
 [0 1 0 1 0 0 0 0 0 0]
 [0 1 1 1 0 0 0 0 0 0]
 [1 1 1 1 0 0 0 0 0 0]
 [0 1 0 1 0 0 0 0 0 0]
 [0 1 0 1 0 0 0 0 0 0]]","((0, 0, 0, 0, 0, 0, 0, 0, 0, 0), (0, 0, 0, 0, 0, 0, 0, 0, 0, 0), (0, 0, 0, 0, 0, 0, 0, 0, 0, 0), (0, 0, 0, 0, 0, 0, 0, 0, 0, 0), (0, 0, 0, 0, 0, 0, 0, 0, 0, 0), (0, 0, 0, 0, 0, 0, 0, 0, 0, 0), (1, 1, 0, 1, 0, 0, 0, 0, 0, 0), (0, 1, 0, 1, 0, 0, 0, 0, 0, 0), (0, 1, 1, 1, 0, 0, 0, 0, 0, 0), (1, 1, 1, 1, 0, 0, 0, 0, 0, 0), (0, 1, 0, 1, 0, 0, 0, 0, 0, 0), (0, 1, 0, 1, 0, 0, 0, 0, 0, 0))","[[0. 0. 0. 0. 0. 0. 0. 0. 0. 0. 0. 0. 0. 0. 0. 0. 0. 0.]
 [0. 0. 0. 0. 0. 0. 0. 0. 0. 0. 0. 0. 0. 0. 0. 0. 0. 0.]
 [0. 0. 0. 0. 0. 0. 0. 0. 0. 0. 0. 0. 0. 0. 0. 0. 0. 0.]
 [0. 0. 0. 0. 0. 0. 0. 0. 0. 0. 0. 0. 0. 0. 0. 0. 0. 0.]
 [0. 0. 0. 0. 0. 0. 0. 0. 0. 0. 0. 0. 0. 0. 0. 0. 0. 0.]
 [0. 0. 0. 0. 0. 0. 0. 0. 0. 0. 0. 0. 0. 0. 0. 0. 0. 0.]
 [0. 0. 0. 0. 0. 0. 0. 1. 1. 0. 1. 0. 0. 0. 0. 0. 0. 0.]
 [0. 0. 0. 0. 0. 0. 0. 0. 1. 0. 1. 0. 0. 0. 0. 0. 0. 0.]
 [0. 0. 0. 0. 0. 0. 0. 0. 1. 1. 1. 0. 0. 0. 0. 0. 0. 0.]
 [0. 0. 0. 0. 0. 0. 0. 1. 1. 1. 1. 0. 0. 0. 0. 0. 0. 0.]
 [0. 0. 0. 0. 0. 0. 0. 0. 1. 0. 1. 0. 0. 0. 0. 0. 0. 0.]
 [0. 0. 0. 0. 0. 0. 0. 0. 1. 0. 1. 0. 0. 0. 0. 0. 0. 0.]]",True,"((0, 0, 0, 0, 0, 0, 0, 0, 0, 0), (0, 0, 0, 0, 0, 0, 0, 0, 0, 0), (0, 0, 0, 0, 0, 0, 0, 0, 0, 0), (0, 0, 0, 0, 0, 0, 0, 0, 0, 0), (0, 0, 0, 0, 0, 0, 0, 0, 0, 0), (0, 0, 0, 0, 0, 0, 0, 0, 0, 0), (1, 0, 0, 1, 0, 0, 0, 0, 0, 0), (1, 0, 0, 1, 0, 0, 0, 0, 0, 0), (1, 1, 1, 1, 0, 0, 0, 0, 0, 0), (1, 0, 0, 1, 0, 0, 0, 0, 0, 0), (1, 0, 0, 1, 0, 0, 0, 0, 0, 0), (1, 1, 1, 1, 0, 0, 0, 0, 0, 0))",1.0,64274cbbe158fd5aa124376a,block_construction_build_components,build_components_build_recall_prolific_pilot_6_towers_2_rep,6105bec69dde271194d2d5d6,Prolific,0.0,0.0,"{'blocks': [{'x': 4, 'y': 0, 'width': 2, 'height': 1}, {'x': 6, 'y': 0, 'width': 2, 'height': 1}, {'x': 4, 'y': 1, 'width': 1, 'height': 2}, {'x': 7, 'y': 1, 'width': 1, 'height': 2}, {'x': 4, 'y': 3, 'width': 2, 'height': 1}, {'x': 6, 'y': 3, 'width': 2, 'height': 1}, {'x': 4, 'y': 4, 'width': 1, 'height': 2}, {'x': 7, 'y': 4, 'width': 1, 'height': 2}], 'discreteWorld': [[True, True, True, True, True, True, True, True, True, True], [True, True, True, True, True, True, True, True, True, True], [True, True, True, True, True, True, True, True, True, True], [True, True, True, True, True, True, True, True, True, True], [False, False, False, False, False, False, True, True, True, True], [False, True, True, False, True, True, True, True, True, True], [False, True, True, False, True, True, True, True, True, True], [False, False, False, False, False, False, True, True, True, True], [True, True, True, True, True, True, True, True, True, True], [True, True, True, True, True, True, True, True, True, True], [True, True, True, True, True, True, True, True, True, True], [True, True, True, True, True, True, True, True, True, True]], 'n_block': 8}",1.0,"[{'height': 1, 'width': 2, 'x': 0, 'y': 0}, {'height': 1, 'width': 2, 'x': 2, 'y': 0}, {'height': 2, 'width': 1, 'x': 0, 'y': 1}, {'height': 2, 'width': 1, 'x': 3, 'y': 1}, {'height': 1, 'width': 2, 'x': 0, 'y': 3}, {'height': 1, 'width': 2, 'x': 2, 'y': 3}, {'height': 2, 'width': 1, 'x': 0, 'y': 4}, {'height': 2, 'width': 1, 'x': 3, 'y': 4}]",1680297147589.0,1680297113171.0,34418.0,34418.0,34402.0,recalled_tower,8.0,0.0,"{'blocks': [{'x': 4, 'y': 0, 'width': 2, 'height': 1}, {'x': 6, 'y': 0, 'width': 2, 'height': 1}, {'x': 4, 'y': 1, 'width': 1, 'height': 2}, {'x': 7, 'y': 1, 'width': 1, 'height': 2}, {'x': 4, 'y': 3, 'width': 2, 'height': 1}, {'x': 6, 'y': 3, 'width': 2, 'height': 1}, {'x': 4, 'y': 4, 'width': 1, 'height': 2}, {'x': 7, 'y': 4, 'width': 1, 'height': 2}], 'discreteWorld': [[True, True, True, True, True, True, True, True, True, True], [True, True, True, True, True, True, True, True, True, True], [True, True, True, True, True, True, True, True, True, True], [True, True, True, True, True, True, True, True, True, True], [False, False, False, False, False, False, True, True, True, True], [False, True, True, False, True, True, True, True, True, True], [False, True, True, False, True, True, True, True, True, True], [False, False, False, False, False, False, True, True, True, True], [True, True, True, True, True, True, True, True, True, True], [True, True, True, True, True, True, True, True, True, True], [True, True, True, True, True, True, True, True, True, True], [True, True, True, True, True, True, True, True, True, True]], 'n_block': 8}","[[0 0 0 0 0 0 0 0 0 0]
 [0 0 0 0 0 0 0 0 0 0]
 [0 0 0 0 0 0 0 0 0 0]
 [0 0 0 0 0 0 0 0 0 0]
 [0 0 0 0 0 0 0 0 0 0]
 [0 0 0 0 0 0 0 0 0 0]
 [1 0 0 1 0 0 0 0 0 0]
 [1 0 0 1 0 0 0 0 0 0]
 [1 1 1 1 0 0 0 0 0 0]
 [1 0 0 1 0 0 0 0 0 0]
 [1 0 0 1 0 0 0 0 0 0]
 [1 1 1 1 0 0 0 0 0 0]]","[[0. 0. 0. 0. 0. 0. 0. 0. 0. 0. 0. 0. 0. 0. 0. 0. 0. 0.]
 [0. 0. 0. 0. 0. 0. 0. 0. 0. 0. 0. 0. 0. 0. 0. 0. 0. 0.]
 [0. 0. 0. 0. 0. 0. 0. 0. 0. 0. 0. 0. 0. 0. 0. 0. 0. 0.]
 [0. 0. 0. 0. 0. 0. 0. 0. 0. 0. 0. 0. 0. 0. 0. 0. 0. 0.]
 [0. 0. 0. 0. 0. 0. 0. 0. 0. 0. 0. 0. 0. 0. 0. 0. 0. 0.]
 [0. 0. 0. 0. 0. 0. 0. 0. 0. 0. 0. 0. 0. 0. 0. 0. 0. 0.]
 [1. 0. 0. 1. 0. 0. 0. 0. 0. 0. 0. 0. 0. 0. 0. 0. 0. 0.]
 [1. 0. 0. 1. 0. 0. 0. 0. 0. 0. 0. 0. 0. 0. 0. 0. 0. 0.]
 [1. 1. 1. 1. 0. 0. 0. 0. 0. 0. 0. 0. 0. 0. 0. 0. 0. 0.]
 [1. 0. 0. 1. 0. 0. 0. 0. 0. 0. 0. 0. 0. 0. 0. 0. 0. 0.]
 [1. 0. 0. 1. 0. 0. 0. 0. 0. 0. 0. 0. 0. 0. 0. 0. 0. 0.]
 [1. 1. 1. 1. 0. 0. 0. 0. 0. 0. 0. 0. 0. 0. 0. 0. 0. 0.]]",talls_121_101,0.6875,view,"[[0 0 0 0 0 0 0 0 0 0 0 0 0 0 0 0 0 0]
 [0 0 0 0 0 0 0 0 0 0 0 0 0 0 0 0 0 0]
 [0 0 0 0 0 0 0 0 0 0 0 0 0 0 0 0 0 0]
 [0 0 0 0 0 0 0 0 0 0 0 0 0 0 0 0 0 0]
 [0 0 0 0 0 0 0 0 0 0 0 0 0 0 0 0 0 0]
 [0 0 0 0 0 0 0 0 0 0 0 0 0 0 0 0 0 0]
 [0 0 0 0 0 0 0 1 0 0 1 0 0 0 0 0 0 0]
 [0 0 0 0 0 0 0 1 0 0 1 0 0 0 0 0 0 0]
 [0 0 0 0 0 0 0 1 1 1 1 0 0 0 0 0 0 0]
 [0 0 0 0 0 0 0 1 0 0 1 0 0 0 0 0 0 0]
 [0 0 0 0 0 0 0 1 0 0 1 0 0 0 0 0 0 0]
 [0 0 0 0 0 0 0 1 1 1 1 0 0 0 0 0 0 0]]",False,False,0.6-0.7,True,True,True,True,True,True,True,True,True,True,True,True,False,False,False,False,False,False,True
3,3,64274b6fe158fd5aa12435d4,1680296799306.0,1680296814309.0,view,"{'blocks': [{'x': 0, 'y': 0, 'height': 2, 'width': 1}, {'x': 0, 'y': 2, 'height': 1, 'width': 2}, {'x': 0, 'y': 3, 'height': 1, 'width': 2}, {'x': 1, 'y': 4, 'height': 2, 'width': 1}, {'x': 3, 'y': 0, 'height': 2, 'width': 1}, {'x': 2, 'y': 2, 'height': 1, 'width': 2}, {'x': 2, 'y': 3, 'height': 2, 'width': 1}, {'x': 2, 'y': 5, 'height': 1, 'width': 2}]}",,4,0000000000000000011100000110000011100000111100001001000010010000,talls_102_126,tall_102,wide_024,tall_126,wide_011,talls_102_126,talls_102_126,block-tower-viewing,6,156396,0.0-6.0,block_construction_build_components,build_components_build_recall_prolific_pilot_6_towers_2_rep,6105bec69dde271194d2d5d6,3078-670e6c52-abc7-4109-9187-44f49d80bdea,Prolific,trial_end,,,,,,,,1.0,,"[{'x': 0, 'y': 0, 'height': 2, 'width': 1}, {'x': 3, 'y': 0, 'height': 2, 'width': 1}, {'x': 0, 'y': 2, 'height': 1, 'width': 2}, {'x': 2, 'y': 2, 'height': 1, 'width': 2}, {'x': 0, 'y': 3, 'height': 1, 'width': 2}, {'x': 2, 'y': 3, 'height': 2, 'width': 1}, {'x': 1, 'y': 4, 'height': 2, 'width': 1}, {'x': 2, 'y': 5, 'height': 1, 'width': 2}]","[[0 1 1 1]
 [0 1 1 0]
 [1 1 1 0]
 [1 1 1 1]
 [1 0 0 1]
 [1 0 0 1]]","[[0 0 0 0 0 0 0 0 0 0]
 [0 0 0 0 0 0 0 0 0 0]
 [0 0 0 0 0 0 0 0 0 0]
 [0 0 0 0 0 0 0 0 0 0]
 [0 0 0 0 0 0 0 0 0 0]
 [0 0 0 0 0 0 0 0 0 0]
 [0 1 1 1 0 0 0 0 0 0]
 [0 1 1 0 0 0 0 0 0 0]
 [1 1 1 0 0 0 0 0 0 0]
 [1 1 1 1 0 0 0 0 0 0]
 [1 0 0 1 0 0 0 0 0 0]
 [1 0 0 1 0 0 0 0 0 0]]","((0, 0, 0, 0, 0, 0, 0, 0, 0, 0), (0, 0, 0, 0, 0, 0, 0, 0, 0, 0), (0, 0, 0, 0, 0, 0, 0, 0, 0, 0), (0, 0, 0, 0, 0, 0, 0, 0, 0, 0), (0, 0, 0, 0, 0, 0, 0, 0, 0, 0), (0, 0, 0, 0, 0, 0, 0, 0, 0, 0), (0, 1, 1, 1, 0, 0, 0, 0, 0, 0), (0, 1, 1, 0, 0, 0, 0, 0, 0, 0), (1, 1, 1, 0, 0, 0, 0, 0, 0, 0), (1, 1, 1, 1, 0, 0, 0, 0, 0, 0), (1, 0, 0, 1, 0, 0, 0, 0, 0, 0), (1, 0, 0, 1, 0, 0, 0, 0, 0, 0))","[[0. 0. 0. 0. 0. 0. 0. 0. 0. 0. 0. 0. 0. 0. 0. 0. 0. 0.]
 [0. 0. 0. 0. 0. 0. 0. 0. 0. 0. 0. 0. 0. 0. 0. 0. 0. 0.]
 [0. 0. 0. 0. 0. 0. 0. 0. 0. 0. 0. 0. 0. 0. 0. 0. 0. 0.]
 [0. 0. 0. 0. 0. 0. 0. 0. 0. 0. 0. 0. 0. 0. 0. 0. 0. 0.]
 [0. 0. 0. 0. 0. 0. 0. 0. 0. 0. 0. 0. 0. 0. 0. 0. 0. 0.]
 [0. 0. 0. 0. 0. 0. 0. 0. 0. 0. 0. 0. 0. 0. 0. 0. 0. 0.]
 [0. 0. 0. 0. 0. 0. 0. 0. 1. 1. 1. 0. 0. 0. 0. 0. 0. 0.]
 [0. 0. 0. 0. 0. 0. 0. 0. 1. 1. 0. 0. 0. 0. 0. 0. 0. 0.]
 [0. 0. 0. 0. 0. 0. 0. 1. 1. 1. 0. 0. 0. 0. 0. 0. 0. 0.]
 [0. 0. 0. 0. 0. 0. 0. 1. 1. 1. 1. 0. 0. 0. 0. 0. 0. 0.]
 [0. 0. 0. 0. 0. 0. 0. 1. 0. 0. 1. 0. 0. 0. 0. 0. 0. 0.]
 [0. 0. 0. 0. 0. 0. 0. 1. 0. 0. 1. 0. 0. 0. 0. 0. 0. 0.]]",True,"((0, 0, 0, 0, 0, 0, 0, 0, 0, 0), (0, 0, 0, 0, 0, 0, 0, 0, 0, 0), (0, 0, 0, 0, 0, 0, 0, 0, 0, 0), (0, 0, 0, 0, 0, 0, 0, 0, 0, 0), (0, 0, 0, 0, 0, 0, 0, 0, 0, 0), (0, 0, 0, 0, 0, 0, 0, 0, 0, 0), (1, 1, 1, 1, 0, 0, 0, 0, 0, 0), (1, 0, 0, 1, 0, 0, 0, 0, 0, 0), (1, 0, 0, 1, 0, 0, 0, 0, 0, 0), (1, 1, 1, 1, 0, 0, 0, 0, 0, 0), (1, 0, 0, 1, 0, 0, 0, 0, 0, 0), (1, 0, 0, 1, 0, 0, 0, 0, 0, 0))",9.0,64274d89e158fd5aa12438c9,block_construction_build_components,build_components_build_recall_prolific_pilot_6_towers_2_rep,6105bec69dde271194d2d5d6,Prolific,0.0,0.0,"{'blocks': [{'x': 5, 'y': 0, 'width': 1, 'height': 2}, {'x': 8, 'y': 0, 'width': 1, 'height': 2}, {'x': 5, 'y': 2, 'width': 2, 'height': 1}, {'x': 7, 'y': 2, 'width': 2, 'height': 1}, {'x': 5, 'y': 3, 'width': 1, 'height': 2}, {'x': 8, 'y': 3, 'width': 1, 'height': 2}, {'x': 7, 'y': 5, 'width': 2, 'height': 1}, {'x': 5, 'y': 5, 'width': 2, 'height': 1}], 'discreteWorld': [[True, True, True, True, True, True, True, True, True, True], [True, True, True, True, True, True, True, True, True, True], [True, True, True, True, True, True, True, True, True, True], [True, True, True, True, True, True, True, True, True, True], [True, True, True, True, True, True, True, True, True, True], [False, False, False, False, False, False, True, True, True, True], [True, True, False, True, True, False, True, True, True, True], [True, True, False, True, True, False, True, True, True, True], [False, False, False, False, False, False, True, True, True, True], [True, True, True, True, True, True, True, True, True, True], [True, True, True, True, True, True, True, True, True, True], [True, True, True, True, True, True, True, True, True, True]], 'n_block': 8}",5.0,"[{'height': 2, 'width': 1, 'x': 0, 'y': 0}, {'height': 2, 'width': 1, 'x': 3, 'y': 0}, {'height': 1, 'width': 2, 'x': 0, 'y': 2}, {'height': 1, 'width': 2, 'x': 2, 'y': 2}, {'height': 2, 'width': 1, 'x': 0, 'y': 3}, {'height': 2, 'width': 1, 'x': 3, 'y': 3}, {'height': 1, 'width': 2, 'x': 2, 'y': 5}, {'height': 1, 'width': 2, 'x': 0, 'y': 5}]",1680297353522.0,1680297113171.0,240351.0,27109.0,27109.0,recalled_tower,8.0,1.0,"{'blocks': [{'x': 5, 'y': 0, 'width': 1, 'height': 2}, {'x': 8, 'y': 0, 'width': 1, 'height': 2}, {'x': 5, 'y': 2, 'width': 2, 'height': 1}, {'x': 7, 'y': 2, 'width': 2, 'height': 1}, {'x': 5, 'y': 3, 'width': 1, 'height': 2}, {'x': 8, 'y': 3, 'width': 1, 'height': 2}, {'x': 7, 'y': 5, 'width': 2, 'height': 1}, {'x': 5, 'y': 5, 'width': 2, 'height': 1}], 'discreteWorld': [[True, True, True, True, True, True, True, True, True, True], [True, True, True, True, True, True, True, True, True, True], [True, True, True, True, True, True, True, True, True, True], [True, True, True, True, True, True, True, True, True, True], [True, True, True, True, True, True, True, True, True, True], [False, False, False, False, False, False, True, True, True, True], [True, True, False, True, True, False, True, True, True, True], [True, True, False, True, True, False, True, True, True, True], [False, False, False, False, False, False, True, True, True, True], [True, True, True, True, True, True, True, True, True, True], [True, True, True, True, True, True, True, True, True, True], [True, True, True, True, True, True, True, True, True, True]], 'n_block': 8}","[[0 0 0 0 0 0 0 0 0 0]
 [0 0 0 0 0 0 0 0 0 0]
 [0 0 0 0 0 0 0 0 0 0]
 [0 0 0 0 0 0 0 0 0 0]
 [0 0 0 0 0 0 0 0 0 0]
 [0 0 0 0 0 0 0 0 0 0]
 [1 1 1 1 0 0 0 0 0 0]
 [1 0 0 1 0 0 0 0 0 0]
 [1 0 0 1 0 0 0 0 0 0]
 [1 1 1 1 0 0 0 0 0 0]
 [1 0 0 1 0 0 0 0 0 0]
 [1 0 0 1 0 0 0 0 0 0]]","[[0. 0. 0. 0. 0. 0. 0. 0. 0. 0. 0. 0. 0. 0. 0. 0. 0. 0.]
 [0. 0. 0. 0. 0. 0. 0. 0. 0. 0. 0. 0. 0. 0. 0. 0. 0. 0.]
 [0. 0. 0. 0. 0. 0. 0. 0. 0. 0. 0. 0. 0. 0. 0. 0. 0. 0.]
 [0. 0. 0. 0. 0. 0. 0. 0. 0. 0. 0. 0. 0. 0. 0. 0. 0. 0.]
 [0. 0. 0. 0. 0. 0. 0. 0. 0. 0. 0. 0. 0. 0. 0. 0. 0. 0.]
 [0. 0. 0. 0. 0. 0. 0. 0. 0. 0. 0. 0. 0. 0. 0. 0. 0. 0.]
 [1. 1. 1. 1. 0. 0. 0. 0. 0. 0. 0. 0. 0. 0. 0. 0. 0. 0.]
 [1. 0. 0. 1. 0. 0. 0. 0. 0. 0. 0. 0. 0. 0. 0. 0. 0. 0.]
 [1. 0. 0. 1. 0. 0. 0. 0. 0. 0. 0. 0. 0. 0. 0. 0. 0. 0.]
 [1. 1. 1. 1. 0. 0. 0. 0. 0. 0. 0. 0. 0. 0. 0. 0. 0. 0.]
 [1. 0. 0. 1. 0. 0. 0. 0. 0. 0. 0. 0. 0. 0. 0. 0. 0. 0.]
 [1. 0. 0. 1. 0. 0. 0. 0. 0. 0. 0. 0. 0. 0. 0. 0. 0. 0.]]",talls_102_126,0.75,view,"[[0 0 0 0 0 0 0 0 0 0 0 0 0 0 0 0 0 0]
 [0 0 0 0 0 0 0 0 0 0 0 0 0 0 0 0 0 0]
 [0 0 0 0 0 0 0 0 0 0 0 0 0 0 0 0 0 0]
 [0 0 0 0 0 0 0 0 0 0 0 0 0 0 0 0 0 0]
 [0 0 0 0 0 0 0 0 0 0 0 0 0 0 0 0 0 0]
 [0 0 0 0 0 0 0 0 0 0 0 0 0 0 0 0 0 0]
 [0 0 0 0 0 0 0 1 1 1 1 0 0 0 0 0 0 0]
 [0 0 0 0 0 0 0 1 0 0 1 0 0 0 0 0 0 0]
 [0 0 0 0 0 0 0 1 0 0 1 0 0 0 0 0 0 0]
 [0 0 0 0 0 0 0 1 1 1 1 0 0 0 0 0 0 0]
 [0 0 0 0 0 0 0 1 0 0 1 0 0 0 0 0 0 0]
 [0 0 0 0 0 0 0 1 0 0 1 0 0 0 0 0 0 0]]",False,False,0.7-0.8,True,True,True,True,True,True,True,True,True,True,True,True,True,False,False,False,False,False,True
4,4,64274b96e158fd5aa12435e8,1680296815916.0,,build,"{'blocks': [{'x': 0, 'y': 0, 'height': 1, 'width': 2}, {'x': 1, 'y': 1, 'height': 2, 'width': 1}, {'x': 1, 'y': 3, 'height': 2, 'width': 1}, {'x': 0, 'y': 5, 'height': 1, 'width': 2}, {'x': 2, 'y': 0, 'height': 1, 'width': 2}, {'x': 2, 'y': 1, 'height': 2, 'width': 1}, {'x': 2, 'y': 3, 'height': 1, 'width': 2}, {'x': 2, 'y': 4, 'height': 2, 'width': 1}]}",,5,0000000000000000111000000110000001110000011000000110000011110000,talls_118_114,tall_118,wide_008,tall_114,wide_019,talls_118_114,talls_118_114,block-tower-building-undo,7,195840,0.0-7.0,block_construction_build_components,build_components_build_recall_prolific_pilot_6_towers_2_rep,6105bec69dde271194d2d5d6,3078-670e6c52-abc7-4109-9187-44f49d80bdea,Prolific,trial_end,1680296850756.0,192606.0,"[{'x': 6, 'y': 0, 'width': 2, 'height': 1}, {'x': 4, 'y': 0, 'width': 2, 'height': 1}, {'x': 5, 'y': 1, 'width': 1, 'height': 2}, {'x': 6, 'y': 1, 'width': 1, 'height': 2}, {'x': 5, 'y': 3, 'width': 1, 'height': 2}, {'x': 6, 'y': 3, 'width': 2, 'height': 1}, {'x': 6, 'y': 4, 'width': 1, 'height': 2}, {'x': 4, 'y': 5, 'width': 2, 'height': 1}]","[[True, True, True, True, True, True, True, True, True, True], [True, True, True, True, True, True, True, True, True, True], [True, True, True, True, True, True, True, True, True, True], [True, True, True, True, True, True, True, True, True, True], [False, True, True, True, True, False, True, True, True, True], [False, False, False, False, False, False, True, True, True, True], [False, False, False, False, False, False, True, True, True, True], [False, True, True, False, True, True, True, True, True, True], [True, True, True, True, True, True, True, True, True, True], [True, True, True, True, True, True, True, True, True, True], [True, True, True, True, True, True, True, True, True, True], [True, True, True, True, True, True, True, True, True, True]]",trial_end,perfect-reconstruction-translation,34840.0,1.0,0.0,"[{'x': 0, 'y': 0, 'height': 1, 'width': 2}, {'x': 2, 'y': 0, 'height': 1, 'width': 2}, {'x': 1, 'y': 1, 'height': 2, 'width': 1}, {'x': 2, 'y': 1, 'height': 2, 'width': 1}, {'x': 1, 'y': 3, 'height': 2, 'width': 1}, {'x': 2, 'y': 3, 'height': 1, 'width': 2}, {'x': 2, 'y': 4, 'height': 2, 'width': 1}, {'x': 0, 'y': 5, 'height': 1, 'width': 2}]","[[1 1 1 0]
 [0 1 1 0]
 [0 1 1 1]
 [0 1 1 0]
 [0 1 1 0]
 [1 1 1 1]]","[[0 0 0 0 0 0 0 0 0 0]
 [0 0 0 0 0 0 0 0 0 0]
 [0 0 0 0 0 0 0 0 0 0]
 [0 0 0 0 0 0 0 0 0 0]
 [0 0 0 0 0 0 0 0 0 0]
 [0 0 0 0 0 0 0 0 0 0]
 [1 1 1 0 0 0 0 0 0 0]
 [0 1 1 0 0 0 0 0 0 0]
 [0 1 1 1 0 0 0 0 0 0]
 [0 1 1 0 0 0 0 0 0 0]
 [0 1 1 0 0 0 0 0 0 0]
 [1 1 1 1 0 0 0 0 0 0]]","((0, 0, 0, 0, 0, 0, 0, 0, 0, 0), (0, 0, 0, 0, 0, 0, 0, 0, 0, 0), (0, 0, 0, 0, 0, 0, 0, 0, 0, 0), (0, 0, 0, 0, 0, 0, 0, 0, 0, 0), (0, 0, 0, 0, 0, 0, 0, 0, 0, 0), (0, 0, 0, 0, 0, 0, 0, 0, 0, 0), (1, 1, 1, 0, 0, 0, 0, 0, 0, 0), (0, 1, 1, 0, 0, 0, 0, 0, 0, 0), (0, 1, 1, 1, 0, 0, 0, 0, 0, 0), (0, 1, 1, 0, 0, 0, 0, 0, 0, 0), (0, 1, 1, 0, 0, 0, 0, 0, 0, 0), (1, 1, 1, 1, 0, 0, 0, 0, 0, 0))","[[0. 0. 0. 0. 0. 0. 0. 0. 0. 0. 0. 0. 0. 0. 0. 0. 0. 0.]
 [0. 0. 0. 0. 0. 0. 0. 0. 0. 0. 0. 0. 0. 0. 0. 0. 0. 0.]
 [0. 0. 0. 0. 0. 0. 0. 0. 0. 0. 0. 0. 0. 0. 0. 0. 0. 0.]
 [0. 0. 0. 0. 0. 0. 0. 0. 0. 0. 0. 0. 0. 0. 0. 0. 0. 0.]
 [0. 0. 0. 0. 0. 0. 0. 0. 0. 0. 0. 0. 0. 0. 0. 0. 0. 0.]
 [0. 0. 0. 0. 0. 0. 0. 0. 0. 0. 0. 0. 0. 0. 0. 0. 0. 0.]
 [0. 0. 0. 0. 0. 0. 0. 1. 1. 1. 0. 0. 0. 0. 0. 0. 0. 0.]
 [0. 0. 0. 0. 0. 0. 0. 0. 1. 1. 0. 0. 0. 0. 0. 0. 0. 0.]
 [0. 0. 0. 0. 0. 0. 0. 0. 1. 1. 1. 0. 0. 0. 0. 0. 0. 0.]
 [0. 0. 0. 0. 0. 0. 0. 0. 1. 1. 0. 0. 0. 0. 0. 0. 0. 0.]
 [0. 0. 0. 0. 0. 0. 0. 0. 1. 1. 0. 0. 0. 0. 0. 0. 0. 0.]
 [0. 0. 0. 0. 0. 0. 0. 1. 1. 1. 1. 0. 0. 0. 0. 0. 0. 0.]]",True,"((0, 0, 0, 0, 0, 0, 0, 0, 0, 0), (0, 0, 0, 0, 0, 0, 0, 0, 0, 0), (0, 0, 0, 0, 0, 0, 0, 0, 0, 0), (0, 0, 0, 0, 0, 0, 0, 0, 0, 0), (0, 0, 0, 0, 0, 0, 0, 0, 0, 0), (0, 0, 0, 0, 0, 0, 0, 0, 0, 0), (1, 0, 0, 1, 0, 0, 0, 0, 0, 0), (1, 0, 0, 1, 0, 0, 0, 0, 0, 0), (1, 0, 1, 1, 0, 0, 0, 0, 0, 0), (1, 0, 0, 1, 0, 0, 0, 0, 0, 0), (1, 0, 0, 1, 0, 0, 0, 0, 0, 0), (1, 1, 1, 1, 1, 0, 0, 0, 0, 0))",5.0,64274d42e158fd5aa124384a,block_construction_build_components,build_components_build_recall_prolific_pilot_6_towers_2_rep,6105bec69dde271194d2d5d6,Prolific,0.0,2.0,"{'blocks': [{'x': 5, 'y': 0, 'width': 2, 'height': 1}, {'x': 7, 'y': 0, 'width': 2, 'height': 1}, {'x': 4, 'y': 0, 'width': 1, 'height': 2}, {'x': 4, 'y': 2, 'width': 1, 'height': 2}, {'x': 7, 'y': 1, 'width': 1, 'height': 2}, {'x': 4, 'y': 4, 'width': 1, 'height': 2}, {'x': 6, 'y': 3, 'width': 2, 'height': 1}, {'x': 7, 'y': 4, 'width': 1, 'height': 2}], 'discreteWorld': [[True, True, True, True, True, True, True, True, True, True], [True, True, True, True, True, True, True, True, True, True], [True, True, True, True, True, True, True, True, True, True], [True, True, True, True, True, True, True, True, True, True], [False, False, False, False, False, False, True, True, True, True], [False, True, True, True, True, True, True, True, True, True], [False, True, True, False, True, True, True, True, True, True], [False, False, False, False, False, False, True, True, True, True], [False, True, True, True, True, True, True, True, True, True], [True, True, True, True, True, True, True, True, True, True], [True, True, True, True, True, True, True, True, True, True], [True, True, True, True, True, True, True, True, True, True]], 'n_block': 8}",3.0,"[{'height': 1, 'width': 2, 'x': 1, 'y': 0}, {'height': 1, 'width': 2, 'x': 3, 'y': 0}, {'height': 2, 'width': 1, 'x': 0, 'y': 0}, {'height': 2, 'width': 1, 'x': 0, 'y': 2}, {'height': 2, 'width': 1, 'x': 3, 'y': 1}, {'height': 2, 'width': 1, 'x': 0, 'y': 4}, {'height': 1, 'width': 2, 'x': 2, 'y': 3}, {'height': 2, 'width': 1, 'x': 3, 'y': 4}]",1680297282219.0,1680297113171.0,169048.0,64357.0,64357.0,recalled_tower,8.0,1.0,"{'blocks': [{'x': 5, 'y': 0, 'width': 2, 'height': 1}, {'x': 7, 'y': 0, 'width': 2, 'height': 1}, {'x': 4, 'y': 0, 'width': 1, 'height': 2}, {'x': 4, 'y': 2, 'width': 1, 'height': 2}, {'x': 7, 'y': 1, 'width': 1, 'height': 2}, {'x': 4, 'y': 4, 'width': 1, 'height': 2}, {'x': 6, 'y': 3, 'width': 2, 'height': 1}, {'x': 7, 'y': 4, 'width': 1, 'height': 2}], 'discreteWorld': [[True, True, True, True, True, True, True, True, True, True], [True, True, True, True, True, True, True, True, True, True], [True, True, True, True, True, True, True, True, True, True], [True, True, True, True, True, True, True, True, True, True], [False, False, False, False, False, False, True, True, True, True], [False, True, True, True, True, True, True, True, True, True], [False, True, True, False, True, True, True, True, True, True], [False, False, False, False, False, False, True, True, True, True], [False, True, True, True, True, True, True, True, True, True], [True, True, True, True, True, True, True, True, True, True], [True, True, True, True, True, True, True, True, True, True], [True, True, True, True, True, True, True, True, True, True]], 'n_block': 8}","[[0 0 0 0 0 0 0 0 0 0]
 [0 0 0 0 0 0 0 0 0 0]
 [0 0 0 0 0 0 0 0 0 0]
 [0 0 0 0 0 0 0 0 0 0]
 [0 0 0 0 0 0 0 0 0 0]
 [0 0 0 0 0 0 0 0 0 0]
 [1 0 0 1 0 0 0 0 0 0]
 [1 0 0 1 0 0 0 0 0 0]
 [1 0 1 1 0 0 0 0 0 0]
 [1 0 0 1 0 0 0 0 0 0]
 [1 0 0 1 0 0 0 0 0 0]
 [1 1 1 1 1 0 0 0 0 0]]","[[0. 0. 0. 0. 0. 0. 0. 0. 0. 0. 0. 0. 0. 0. 0. 0. 0. 0.]
 [0. 0. 0. 0. 0. 0. 0. 0. 0. 0. 0. 0. 0. 0. 0. 0. 0. 0.]
 [0. 0. 0. 0. 0. 0. 0. 0. 0. 0. 0. 0. 0. 0. 0. 0. 0. 0.]
 [0. 0. 0. 0. 0. 0. 0. 0. 0. 0. 0. 0. 0. 0. 0. 0. 0. 0.]
 [0. 0. 0. 0. 0. 0. 0. 0. 0. 0. 0. 0. 0. 0. 0. 0. 0. 0.]
 [0. 0. 0. 0. 0. 0. 0. 0. 0. 0. 0. 0. 0. 0. 0. 0. 0. 0.]
 [1. 0. 0. 1. 0. 0. 0. 0. 0. 0. 0. 0. 0. 0. 0. 0. 0. 0.]
 [1. 0. 0. 1. 0. 0. 0. 0. 0. 0. 0. 0. 0. 0. 0. 0. 0. 0.]
 [1. 0. 1. 1. 0. 0. 0. 0. 0. 0. 0. 0. 0. 0. 0. 0. 0. 0.]
 [1. 0. 0. 1. 0. 0. 0. 0. 0. 0. 0. 0. 0. 0. 0. 0. 0. 0.]
 [1. 0. 0. 1. 0. 0. 0. 0. 0. 0. 0. 0. 0. 0. 0. 0. 0. 0.]
 [1. 1. 1. 1. 1. 0. 0. 0. 0. 0. 0. 0. 0. 0. 0. 0. 0. 0.]]",talls_118_114,0.625,build,"[[0 0 0 0 0 0 0 0 0 0 0 0 0 0 0 0 0 0]
 [0 0 0 0 0 0 0 0 0 0 0 0 0 0 0 0 0 0]
 [0 0 0 0 0 0 0 0 0 0 0 0 0 0 0 0 0 0]
 [0 0 0 0 0 0 0 0 0 0 0 0 0 0 0 0 0 0]
 [0 0 0 0 0 0 0 0 0 0 0 0 0 0 0 0 0 0]
 [0 0 0 0 0 0 0 0 0 0 0 0 0 0 0 0 0 0]
 [0 0 0 0 0 0 1 0 0 1 0 0 0 0 0 0 0 0]
 [0 0 0 0 0 0 1 0 0 1 0 0 0 0 0 0 0 0]
 [0 0 0 0 0 0 1 0 1 1 0 0 0 0 0 0 0 0]
 [0 0 0 0 0 0 1 0 0 1 0 0 0 0 0 0 0 0]
 [0 0 0 0 0 0 1 0 0 1 0 0 0 0 0 0 0 0]
 [0 0 0 0 0 0 1 1 1 1 1 0 0 0 0 0 0 0]]",False,False,0.6-0.7,True,True,True,True,True,True,True,True,True,True,True,False,False,False,False,False,False,False,True
5,5,64274ba1e158fd5aa12435f0,1680296837748.0,,build,"{'blocks': [{'x': 0, 'y': 0, 'height': 1, 'width': 2}, {'x': 1, 'y': 1, 'height': 2, 'width': 1}, {'x': 0, 'y': 3, 'height': 1, 'width': 2}, {'x': 0, 'y': 4, 'height': 2, 'width': 1}, {'x': 2, 'y': 0, 'height': 2, 'width': 1}, {'x': 2, 'y': 2, 'height': 1, 'width': 2}, {'x': 2, 'y': 3, 'height': 2, 'width': 1}, {'x': 2, 'y': 5, 'height': 1, 'width': 2}]}",,1,0000000000000000101100001010000011100000011100000110000011100000,talls_111_127,tall_111,wide_011,tall_127,wide_015,talls_111_127,talls_111_127,block-tower-building-undo,3,213366,0.0-3.0,block_construction_build_components,build_components_build_recall_prolific_pilot_6_towers_2_rep,63d419bfcbf7d56de633f50d,2793-746fc5b9-f318-4963-82a4-3ec1818eb7fc,Prolific,trial_end,1680296860784.0,210025.0,"[{'x': 6, 'y': 0, 'width': 1, 'height': 2}, {'x': 4, 'y': 0, 'width': 2, 'height': 1}, {'x': 5, 'y': 1, 'width': 1, 'height': 2}, {'x': 6, 'y': 2, 'width': 2, 'height': 1}, {'x': 6, 'y': 3, 'width': 1, 'height': 2}, {'x': 4, 'y': 3, 'width': 2, 'height': 1}, {'x': 4, 'y': 4, 'width': 1, 'height': 2}, {'x': 6, 'y': 5, 'width': 2, 'height': 1}]","[[True, True, True, True, True, True, True, True, True, True], [True, True, True, True, True, True, True, True, True, True], [True, True, True, True, True, True, True, True, True, True], [True, True, True, True, True, True, True, True, True, True], [False, True, True, False, False, False, True, True, True, True], [False, False, False, False, True, True, True, True, True, True], [False, False, False, False, False, False, True, True, True, True], [True, True, False, True, True, False, True, True, True, True], [True, True, True, True, True, True, True, True, True, True], [True, True, True, True, True, True, True, True, True, True], [True, True, True, True, True, True, True, True, True, True], [True, True, True, True, True, True, True, True, True, True]]",trial_end,perfect-reconstruction-translation,23037.0,1.0,0.0,"[{'x': 0, 'y': 0, 'height': 1, 'width': 2}, {'x': 2, 'y': 0, 'height': 2, 'width': 1}, {'x': 1, 'y': 1, 'height': 2, 'width': 1}, {'x': 2, 'y': 2, 'height': 1, 'width': 2}, {'x': 0, 'y': 3, 'height': 1, 'width': 2}, {'x': 2, 'y': 3, 'height': 2, 'width': 1}, {'x': 0, 'y': 4, 'height': 2, 'width': 1}, {'x': 2, 'y': 5, 'height': 1, 'width': 2}]","[[1 0 1 1]
 [1 0 1 0]
 [1 1 1 0]
 [0 1 1 1]
 [0 1 1 0]
 [1 1 1 0]]","[[0 0 0 0 0 0 0 0 0 0]
 [0 0 0 0 0 0 0 0 0 0]
 [0 0 0 0 0 0 0 0 0 0]
 [0 0 0 0 0 0 0 0 0 0]
 [0 0 0 0 0 0 0 0 0 0]
 [0 0 0 0 0 0 0 0 0 0]
 [1 0 1 1 0 0 0 0 0 0]
 [1 0 1 0 0 0 0 0 0 0]
 [1 1 1 0 0 0 0 0 0 0]
 [0 1 1 1 0 0 0 0 0 0]
 [0 1 1 0 0 0 0 0 0 0]
 [1 1 1 0 0 0 0 0 0 0]]","((0, 0, 0, 0, 0, 0, 0, 0, 0, 0), (0, 0, 0, 0, 0, 0, 0, 0, 0, 0), (0, 0, 0, 0, 0, 0, 0, 0, 0, 0), (0, 0, 0, 0, 0, 0, 0, 0, 0, 0), (0, 0, 0, 0, 0, 0, 0, 0, 0, 0), (0, 0, 0, 0, 0, 0, 0, 0, 0, 0), (1, 0, 1, 1, 0, 0, 0, 0, 0, 0), (1, 0, 1, 0, 0, 0, 0, 0, 0, 0), (1, 1, 1, 0, 0, 0, 0, 0, 0, 0), (0, 1, 1, 1, 0, 0, 0, 0, 0, 0), (0, 1, 1, 0, 0, 0, 0, 0, 0, 0), (1, 1, 1, 0, 0, 0, 0, 0, 0, 0))","[[0. 0. 0. 0. 0. 0. 0. 0. 0. 0. 0. 0. 0. 0. 0. 0. 0. 0.]
 [0. 0. 0. 0. 0. 0. 0. 0. 0. 0. 0. 0. 0. 0. 0. 0. 0. 0.]
 [0. 0. 0. 0. 0. 0. 0. 0. 0. 0. 0. 0. 0. 0. 0. 0. 0. 0.]
 [0. 0. 0. 0. 0. 0. 0. 0. 0. 0. 0. 0. 0. 0. 0. 0. 0. 0.]
 [0. 0. 0. 0. 0. 0. 0. 0. 0. 0. 0. 0. 0. 0. 0. 0. 0. 0.]
 [0. 0. 0. 0. 0. 0. 0. 0. 0. 0. 0. 0. 0. 0. 0. 0. 0. 0.]
 [0. 0. 0. 0. 0. 0. 0. 1. 0. 1. 1. 0. 0. 0. 0. 0. 0. 0.]
 [0. 0. 0. 0. 0. 0. 0. 1. 0. 1. 0. 0. 0. 0. 0. 0. 0. 0.]
 [0. 0. 0. 0. 0. 0. 0. 1. 1. 1. 0. 0. 0. 0. 0. 0. 0. 0.]
 [0. 0. 0. 0. 0. 0. 0. 0. 1. 1. 1. 0. 0. 0. 0. 0. 0. 0.]
 [0. 0. 0. 0. 0. 0. 0. 0. 1. 1. 0. 0. 0. 0. 0. 0. 0. 0.]
 [0. 0. 0. 0. 0. 0. 0. 1. 1. 1. 0. 0. 0. 0. 0. 0. 0. 0.]]",False,,,,,,,,,,,,,,,,,,,,,,,,no_match,0.0,,,False,,,False,False,False,False,False,False,False,False,False,False,False,False,False,False,False,False,False,False,False
6,6,64274bb1e158fd5aa12435f9,1680296865403.0,1680296880411.0,view,"{'blocks': [{'x': 0, 'y': 0, 'height': 2, 'width': 1}, {'x': 0, 'y': 2, 'height': 1, 'width': 2}, {'x': 0, 'y': 3, 'height': 1, 'width': 2}, {'x': 1, 'y': 4, 'height': 2, 'width': 1}, {'x': 3, 'y': 0, 'height': 2, 'width': 1}, {'x': 2, 'y': 2, 'height': 1, 'width': 2}, {'x': 2, 'y': 3, 'height': 2, 'width': 1}, {'x': 2, 'y': 5, 'height': 1, 'width': 2}]}",,2,0000000000000000011100000110000011100000111100001001000010010000,talls_102_126,tall_102,wide_024,tall_126,wide_011,talls_102_126,talls_102_126,block-tower-viewing,4,229981,0.0-4.0,block_construction_build_components,build_components_build_recall_prolific_pilot_6_towers_2_rep,63d419bfcbf7d56de633f50d,2793-746fc5b9-f318-4963-82a4-3ec1818eb7fc,Prolific,trial_end,,,,,,,,1.0,,"[{'x': 0, 'y': 0, 'height': 2, 'width': 1}, {'x': 3, 'y': 0, 'height': 2, 'width': 1}, {'x': 0, 'y': 2, 'height': 1, 'width': 2}, {'x': 2, 'y': 2, 'height': 1, 'width': 2}, {'x': 0, 'y': 3, 'height': 1, 'width': 2}, {'x': 2, 'y': 3, 'height': 2, 'width': 1}, {'x': 1, 'y': 4, 'height': 2, 'width': 1}, {'x': 2, 'y': 5, 'height': 1, 'width': 2}]","[[0 1 1 1]
 [0 1 1 0]
 [1 1 1 0]
 [1 1 1 1]
 [1 0 0 1]
 [1 0 0 1]]","[[0 0 0 0 0 0 0 0 0 0]
 [0 0 0 0 0 0 0 0 0 0]
 [0 0 0 0 0 0 0 0 0 0]
 [0 0 0 0 0 0 0 0 0 0]
 [0 0 0 0 0 0 0 0 0 0]
 [0 0 0 0 0 0 0 0 0 0]
 [0 1 1 1 0 0 0 0 0 0]
 [0 1 1 0 0 0 0 0 0 0]
 [1 1 1 0 0 0 0 0 0 0]
 [1 1 1 1 0 0 0 0 0 0]
 [1 0 0 1 0 0 0 0 0 0]
 [1 0 0 1 0 0 0 0 0 0]]","((0, 0, 0, 0, 0, 0, 0, 0, 0, 0), (0, 0, 0, 0, 0, 0, 0, 0, 0, 0), (0, 0, 0, 0, 0, 0, 0, 0, 0, 0), (0, 0, 0, 0, 0, 0, 0, 0, 0, 0), (0, 0, 0, 0, 0, 0, 0, 0, 0, 0), (0, 0, 0, 0, 0, 0, 0, 0, 0, 0), (0, 1, 1, 1, 0, 0, 0, 0, 0, 0), (0, 1, 1, 0, 0, 0, 0, 0, 0, 0), (1, 1, 1, 0, 0, 0, 0, 0, 0, 0), (1, 1, 1, 1, 0, 0, 0, 0, 0, 0), (1, 0, 0, 1, 0, 0, 0, 0, 0, 0), (1, 0, 0, 1, 0, 0, 0, 0, 0, 0))","[[0. 0. 0. 0. 0. 0. 0. 0. 0. 0. 0. 0. 0. 0. 0. 0. 0. 0.]
 [0. 0. 0. 0. 0. 0. 0. 0. 0. 0. 0. 0. 0. 0. 0. 0. 0. 0.]
 [0. 0. 0. 0. 0. 0. 0. 0. 0. 0. 0. 0. 0. 0. 0. 0. 0. 0.]
 [0. 0. 0. 0. 0. 0. 0. 0. 0. 0. 0. 0. 0. 0. 0. 0. 0. 0.]
 [0. 0. 0. 0. 0. 0. 0. 0. 0. 0. 0. 0. 0. 0. 0. 0. 0. 0.]
 [0. 0. 0. 0. 0. 0. 0. 0. 0. 0. 0. 0. 0. 0. 0. 0. 0. 0.]
 [0. 0. 0. 0. 0. 0. 0. 0. 1. 1. 1. 0. 0. 0. 0. 0. 0. 0.]
 [0. 0. 0. 0. 0. 0. 0. 0. 1. 1. 0. 0. 0. 0. 0. 0. 0. 0.]
 [0. 0. 0. 0. 0. 0. 0. 1. 1. 1. 0. 0. 0. 0. 0. 0. 0. 0.]
 [0. 0. 0. 0. 0. 0. 0. 1. 1. 1. 1. 0. 0. 0. 0. 0. 0. 0.]
 [0. 0. 0. 0. 0. 0. 0. 1. 0. 0. 1. 0. 0. 0. 0. 0. 0. 0.]
 [0. 0. 0. 0. 0. 0. 0. 1. 0. 0. 1. 0. 0. 0. 0. 0. 0. 0.]]",False,,,,,,,,,,,,,,,,,,,,,,,,no_match,0.0,,,False,,,False,False,False,False,False,False,False,False,False,False,False,False,False,False,False,False,False,False,False
7,7,64274bc2e158fd5aa1243602,1680296882019.0,1680296897028.0,view,"{'blocks': [{'x': 0, 'y': 0, 'height': 2, 'width': 1}, {'x': 0, 'y': 2, 'height': 1, 'width': 2}, {'x': 0, 'y': 3, 'height': 2, 'width': 1}, {'x': 0, 'y': 5, 'height': 1, 'width': 2}, {'x': 2, 'y': 0, 'height': 1, 'width': 2}, {'x': 2, 'y': 1, 'height': 2, 'width': 1}, {'x': 2, 'y': 3, 'height': 2, 'width': 1}, {'x': 2, 'y': 5, 'height': 1, 'width': 2}]}",,3,0000000000000000111100001010000010100000111000001010000010110000,talls_127_125,tall_127,wide_020,tall_125,wide_025,talls_127_125,talls_127_125,block-tower-viewing,5,246600,0.0-5.0,block_construction_build_components,build_components_build_recall_prolific_pilot_6_towers_2_rep,63d419bfcbf7d56de633f50d,2793-746fc5b9-f318-4963-82a4-3ec1818eb7fc,Prolific,trial_end,,,,,,,,1.0,,"[{'x': 0, 'y': 0, 'height': 2, 'width': 1}, {'x': 2, 'y': 0, 'height': 1, 'width': 2}, {'x': 2, 'y': 1, 'height': 2, 'width': 1}, {'x': 0, 'y': 2, 'height': 1, 'width': 2}, {'x': 0, 'y': 3, 'height': 2, 'width': 1}, {'x': 2, 'y': 3, 'height': 2, 'width': 1}, {'x': 0, 'y': 5, 'height': 1, 'width': 2}, {'x': 2, 'y': 5, 'height': 1, 'width': 2}]","[[1 1 1 1]
 [1 0 1 0]
 [1 0 1 0]
 [1 1 1 0]
 [1 0 1 0]
 [1 0 1 1]]","[[0 0 0 0 0 0 0 0 0 0]
 [0 0 0 0 0 0 0 0 0 0]
 [0 0 0 0 0 0 0 0 0 0]
 [0 0 0 0 0 0 0 0 0 0]
 [0 0 0 0 0 0 0 0 0 0]
 [0 0 0 0 0 0 0 0 0 0]
 [1 1 1 1 0 0 0 0 0 0]
 [1 0 1 0 0 0 0 0 0 0]
 [1 0 1 0 0 0 0 0 0 0]
 [1 1 1 0 0 0 0 0 0 0]
 [1 0 1 0 0 0 0 0 0 0]
 [1 0 1 1 0 0 0 0 0 0]]","((0, 0, 0, 0, 0, 0, 0, 0, 0, 0), (0, 0, 0, 0, 0, 0, 0, 0, 0, 0), (0, 0, 0, 0, 0, 0, 0, 0, 0, 0), (0, 0, 0, 0, 0, 0, 0, 0, 0, 0), (0, 0, 0, 0, 0, 0, 0, 0, 0, 0), (0, 0, 0, 0, 0, 0, 0, 0, 0, 0), (1, 1, 1, 1, 0, 0, 0, 0, 0, 0), (1, 0, 1, 0, 0, 0, 0, 0, 0, 0), (1, 0, 1, 0, 0, 0, 0, 0, 0, 0), (1, 1, 1, 0, 0, 0, 0, 0, 0, 0), (1, 0, 1, 0, 0, 0, 0, 0, 0, 0), (1, 0, 1, 1, 0, 0, 0, 0, 0, 0))","[[0. 0. 0. 0. 0. 0. 0. 0. 0. 0. 0. 0. 0. 0. 0. 0. 0. 0.]
 [0. 0. 0. 0. 0. 0. 0. 0. 0. 0. 0. 0. 0. 0. 0. 0. 0. 0.]
 [0. 0. 0. 0. 0. 0. 0. 0. 0. 0. 0. 0. 0. 0. 0. 0. 0. 0.]
 [0. 0. 0. 0. 0. 0. 0. 0. 0. 0. 0. 0. 0. 0. 0. 0. 0. 0.]
 [0. 0. 0. 0. 0. 0. 0. 0. 0. 0. 0. 0. 0. 0. 0. 0. 0. 0.]
 [0. 0. 0. 0. 0. 0. 0. 0. 0. 0. 0. 0. 0. 0. 0. 0. 0. 0.]
 [0. 0. 0. 0. 0. 0. 0. 1. 1. 1. 1. 0. 0. 0. 0. 0. 0. 0.]
 [0. 0. 0. 0. 0. 0. 0. 1. 0. 1. 0. 0. 0. 0. 0. 0. 0. 0.]
 [0. 0. 0. 0. 0. 0. 0. 1. 0. 1. 0. 0. 0. 0. 0. 0. 0. 0.]
 [0. 0. 0. 0. 0. 0. 0. 1. 1. 1. 0. 0. 0. 0. 0. 0. 0. 0.]
 [0. 0. 0. 0. 0. 0. 0. 1. 0. 1. 0. 0. 0. 0. 0. 0. 0. 0.]
 [0. 0. 0. 0. 0. 0. 0. 1. 0. 1. 1. 0. 0. 0. 0. 0. 0. 0.]]",False,,,,,,,,,,,,,,,,,,,,,,,,no_match,0.0,,,False,,,False,False,False,False,False,False,False,False,False,False,False,False,False,False,False,False,False,False,False
8,8,64274bd8e158fd5aa124361b,1680296855361.0,,build,"{'blocks': [{'x': 0, 'y': 0, 'height': 1, 'width': 2}, {'x': 1, 'y': 1, 'height': 2, 'width': 1}, {'x': 0, 'y': 3, 'height': 1, 'width': 2}, {'x': 1, 'y': 4, 'height': 2, 'width': 1}, {'x': 2, 'y': 0, 'height': 1, 'width': 2}, {'x': 3, 'y': 1, 'height': 2, 'width': 1}, {'x': 3, 'y': 3, 'height': 2, 'width': 1}, {'x': 2, 'y': 5, 'height': 1, 'width': 2}]}",,6,0000000000000000011100000101000011010000010100000101000011110000,talls_097_118,tall_097,wide_006,tall_118,wide_010,talls_097_118,talls_097_118,block-tower-building-undo,8,261126,0.0-8.0,block_construction_build_components,build_components_build_recall_prolific_pilot_6_towers_2_rep,6105bec69dde271194d2d5d6,3078-670e6c52-abc7-4109-9187-44f49d80bdea,Prolific,trial_end,1680296916034.0,257884.0,"[{'x': 6, 'y': 0, 'width': 2, 'height': 1}, {'x': 4, 'y': 0, 'width': 2, 'height': 1}, {'x': 5, 'y': 1, 'width': 1, 'height': 2}, {'x': 7, 'y': 1, 'width': 1, 'height': 2}, {'x': 4, 'y': 3, 'width': 2, 'height': 1}, {'x': 5, 'y': 4, 'width': 1, 'height': 2}, {'x': 7, 'y': 3, 'width': 1, 'height': 2}, {'x': 6, 'y': 5, 'width': 2, 'height': 1}]","[[True, True, True, True, True, True, True, True, True, True], [True, True, True, True, True, True, True, True, True, True], [True, True, True, True, True, True, True, True, True, True], [True, True, True, True, True, True, True, True, True, True], [False, True, True, False, True, True, True, True, True, True], [False, False, False, False, False, False, True, True, True, True], [False, True, True, True, True, False, True, True, True, True], [False, False, False, False, False, False, True, True, True, True], [True, True, True, True, True, True, True, True, True, True], [True, True, True, True, True, True, True, True, True, True], [True, True, True, True, True, True, True, True, True, True], [True, True, True, True, True, True, True, True, True, True]]",trial_end,perfect-reconstruction-translation,60673.0,1.0,0.0,"[{'x': 0, 'y': 0, 'height': 1, 'width': 2}, {'x': 2, 'y': 0, 'height': 1, 'width': 2}, {'x': 1, 'y': 1, 'height': 2, 'width': 1}, {'x': 3, 'y': 1, 'height': 2, 'width': 1}, {'x': 0, 'y': 3, 'height': 1, 'width': 2}, {'x': 3, 'y': 3, 'height': 2, 'width': 1}, {'x': 1, 'y': 4, 'height': 2, 'width': 1}, {'x': 2, 'y': 5, 'height': 1, 'width': 2}]","[[0 1 1 1]
 [0 1 0 1]
 [1 1 0 1]
 [0 1 0 1]
 [0 1 0 1]
 [1 1 1 1]]","[[0 0 0 0 0 0 0 0 0 0]
 [0 0 0 0 0 0 0 0 0 0]
 [0 0 0 0 0 0 0 0 0 0]
 [0 0 0 0 0 0 0 0 0 0]
 [0 0 0 0 0 0 0 0 0 0]
 [0 0 0 0 0 0 0 0 0 0]
 [0 1 1 1 0 0 0 0 0 0]
 [0 1 0 1 0 0 0 0 0 0]
 [1 1 0 1 0 0 0 0 0 0]
 [0 1 0 1 0 0 0 0 0 0]
 [0 1 0 1 0 0 0 0 0 0]
 [1 1 1 1 0 0 0 0 0 0]]","((0, 0, 0, 0, 0, 0, 0, 0, 0, 0), (0, 0, 0, 0, 0, 0, 0, 0, 0, 0), (0, 0, 0, 0, 0, 0, 0, 0, 0, 0), (0, 0, 0, 0, 0, 0, 0, 0, 0, 0), (0, 0, 0, 0, 0, 0, 0, 0, 0, 0), (0, 0, 0, 0, 0, 0, 0, 0, 0, 0), (0, 1, 1, 1, 0, 0, 0, 0, 0, 0), (0, 1, 0, 1, 0, 0, 0, 0, 0, 0), (1, 1, 0, 1, 0, 0, 0, 0, 0, 0), (0, 1, 0, 1, 0, 0, 0, 0, 0, 0), (0, 1, 0, 1, 0, 0, 0, 0, 0, 0), (1, 1, 1, 1, 0, 0, 0, 0, 0, 0))","[[0. 0. 0. 0. 0. 0. 0. 0. 0. 0. 0. 0. 0. 0. 0. 0. 0. 0.]
 [0. 0. 0. 0. 0. 0. 0. 0. 0. 0. 0. 0. 0. 0. 0. 0. 0. 0.]
 [0. 0. 0. 0. 0. 0. 0. 0. 0. 0. 0. 0. 0. 0. 0. 0. 0. 0.]
 [0. 0. 0. 0. 0. 0. 0. 0. 0. 0. 0. 0. 0. 0. 0. 0. 0. 0.]
 [0. 0. 0. 0. 0. 0. 0. 0. 0. 0. 0. 0. 0. 0. 0. 0. 0. 0.]
 [0. 0. 0. 0. 0. 0. 0. 0. 0. 0. 0. 0. 0. 0. 0. 0. 0. 0.]
 [0. 0. 0. 0. 0. 0. 0. 0. 1. 1. 1. 0. 0. 0. 0. 0. 0. 0.]
 [0. 0. 0. 0. 0. 0. 0. 0. 1. 0. 1. 0. 0. 0. 0. 0. 0. 0.]
 [0. 0. 0. 0. 0. 0. 0. 1. 1. 0. 1. 0. 0. 0. 0. 0. 0. 0.]
 [0. 0. 0. 0. 0. 0. 0. 0. 1. 0. 1. 0. 0. 0. 0. 0. 0. 0.]
 [0. 0. 0. 0. 0. 0. 0. 0. 1. 0. 1. 0. 0. 0. 0. 0. 0. 0.]
 [0. 0. 0. 0. 0. 0. 0. 1. 1. 1. 1. 0. 0. 0. 0. 0. 0. 0.]]",True,"((0, 0, 0, 0, 0, 0, 0, 0, 0, 0), (0, 0, 0, 0, 0, 0, 0, 0, 0, 0), (0, 0, 0, 0, 0, 0, 0, 0, 0, 0), (0, 0, 0, 0, 0, 0, 0, 0, 0, 0), (0, 0, 0, 0, 0, 0, 0, 0, 0, 0), (0, 0, 0, 0, 0, 0, 0, 0, 0, 0), (1, 1, 0, 0, 0, 0, 0, 0, 0, 0), (0, 1, 0, 0, 1, 0, 0, 0, 0, 0), (0, 1, 0, 0, 1, 0, 0, 0, 0, 0), (0, 1, 0, 0, 1, 0, 0, 0, 0, 0), (0, 1, 1, 1, 1, 0, 0, 0, 0, 0), (0, 1, 1, 1, 1, 0, 0, 0, 0, 0))",3.0,64274d01e158fd5aa12437e9,block_construction_build_components,build_components_build_recall_prolific_pilot_6_towers_2_rep,6105bec69dde271194d2d5d6,Prolific,1.0,1.0,"{'blocks': [{'x': 7, 'y': 0, 'width': 2, 'height': 1}, {'x': 5, 'y': 0, 'width': 2, 'height': 1}, {'x': 5, 'y': 1, 'width': 1, 'height': 2}, {'x': 5, 'y': 3, 'width': 1, 'height': 2}, {'x': 4, 'y': 5, 'width': 2, 'height': 1}, {'x': 8, 'y': 1, 'width': 1, 'height': 2}, {'x': 8, 'y': 3, 'width': 1, 'height': 2}, {'x': 6, 'y': 1, 'width': 2, 'height': 1}], 'discreteWorld': [[True, True, True, True, True, True, True, True, True, True], [True, True, True, True, True, True, True, True, True, True], [True, True, True, True, True, True, True, True, True, True], [True, True, True, True, True, True, True, True, True, True], [True, True, True, True, True, False, True, True, True, True], [False, False, False, False, False, False, True, True, True, True], [False, False, True, True, True, True, True, True, True, True], [False, False, True, True, True, True, True, True, True, True], [False, False, False, False, False, True, True, True, True, True], [True, True, True, True, True, True, True, True, True, True], [True, True, True, True, True, True, True, True, True, True], [True, True, True, True, True, True, True, True, True, True]], 'n_block': 8}",2.0,"[{'height': 1, 'width': 2, 'x': 3, 'y': 0}, {'height': 1, 'width': 2, 'x': 1, 'y': 0}, {'height': 2, 'width': 1, 'x': 1, 'y': 1}, {'height': 2, 'width': 1, 'x': 1, 'y': 3}, {'height': 1, 'width': 2, 'x': 0, 'y': 5}, {'height': 2, 'width': 1, 'x': 4, 'y': 1}, {'height': 2, 'width': 1, 'x': 4, 'y': 3}, {'height': 1, 'width': 2, 'x': 2, 'y': 1}]",1680297217852.0,1680297113171.0,104681.0,70253.0,34335.0,recalled_tower,8.0,1.0,"{'blocks': [{'x': 7, 'y': 0, 'width': 2, 'height': 1}, {'x': 5, 'y': 0, 'width': 2, 'height': 1}, {'x': 5, 'y': 1, 'width': 1, 'height': 2}, {'x': 5, 'y': 3, 'width': 1, 'height': 2}, {'x': 4, 'y': 5, 'width': 2, 'height': 1}, {'x': 8, 'y': 1, 'width': 1, 'height': 2}, {'x': 8, 'y': 3, 'width': 1, 'height': 2}, {'x': 6, 'y': 1, 'width': 2, 'height': 1}], 'discreteWorld': [[True, True, True, True, True, True, True, True, True, True], [True, True, True, True, True, True, True, True, True, True], [True, True, True, True, True, True, True, True, True, True], [True, True, True, True, True, True, True, True, True, True], [True, True, True, True, True, False, True, True, True, True], [False, False, False, False, False, False, True, True, True, True], [False, False, True, True, True, True, True, True, True, True], [False, False, True, True, True, True, True, True, True, True], [False, False, False, False, False, True, True, True, True, True], [True, True, True, True, True, True, True, True, True, True], [True, True, True, True, True, True, True, True, True, True], [True, True, True, True, True, True, True, True, True, True]], 'n_block': 8}","[[0 0 0 0 0 0 0 0 0 0]
 [0 0 0 0 0 0 0 0 0 0]
 [0 0 0 0 0 0 0 0 0 0]
 [0 0 0 0 0 0 0 0 0 0]
 [0 0 0 0 0 0 0 0 0 0]
 [0 0 0 0 0 0 0 0 0 0]
 [1 1 0 0 0 0 0 0 0 0]
 [0 1 0 0 1 0 0 0 0 0]
 [0 1 0 0 1 0 0 0 0 0]
 [0 1 0 0 1 0 0 0 0 0]
 [0 1 1 1 1 0 0 0 0 0]
 [0 1 1 1 1 0 0 0 0 0]]","[[0. 0. 0. 0. 0. 0. 0. 0. 0. 0. 0. 0. 0. 0. 0. 0. 0. 0.]
 [0. 0. 0. 0. 0. 0. 0. 0. 0. 0. 0. 0. 0. 0. 0. 0. 0. 0.]
 [0. 0. 0. 0. 0. 0. 0. 0. 0. 0. 0. 0. 0. 0. 0. 0. 0. 0.]
 [0. 0. 0. 0. 0. 0. 0. 0. 0. 0. 0. 0. 0. 0. 0. 0. 0. 0.]
 [0. 0. 0. 0. 0. 0. 0. 0. 0. 0. 0. 0. 0. 0. 0. 0. 0. 0.]
 [0. 0. 0. 0. 0. 0. 0. 0. 0. 0. 0. 0. 0. 0. 0. 0. 0. 0.]
 [1. 1. 0. 0. 0. 0. 0. 0. 0. 0. 0. 0. 0. 0. 0. 0. 0. 0.]
 [0. 1. 0. 0. 1. 0. 0. 0. 0. 0. 0. 0. 0. 0. 0. 0. 0. 0.]
 [0. 1. 0. 0. 1. 0. 0. 0. 0. 0. 0. 0. 0. 0. 0. 0. 0. 0.]
 [0. 1. 0. 0. 1. 0. 0. 0. 0. 0. 0. 0. 0. 0. 0. 0. 0. 0.]
 [0. 1. 1. 1. 1. 0. 0. 0. 0. 0. 0. 0. 0. 0. 0. 0. 0. 0.]
 [0. 1. 1. 1. 1. 0. 0. 0. 0. 0. 0. 0. 0. 0. 0. 0. 0. 0.]]",talls_097_118,0.625,build,"[[0 0 0 0 0 0 0 0 0 0 0 0 0 0 0 0 0 0]
 [0 0 0 0 0 0 0 0 0 0 0 0 0 0 0 0 0 0]
 [0 0 0 0 0 0 0 0 0 0 0 0 0 0 0 0 0 0]
 [0 0 0 0 0 0 0 0 0 0 0 0 0 0 0 0 0 0]
 [0 0 0 0 0 0 0 0 0 0 0 0 0 0 0 0 0 0]
 [0 0 0 0 0 0 0 0 0 0 0 0 0 0 0 0 0 0]
 [0 0 0 0 0 0 1 1 0 0 0 0 0 0 0 0 0 0]
 [0 0 0 0 0 0 0 1 0 0 1 0 0 0 0 0 0 0]
 [0 0 0 0 0 0 0 1 0 0 1 0 0 0 0 0 0 0]
 [0 0 0 0 0 0 0 1 0 0 1 0 0 0 0 0 0 0]
 [0 0 0 0 0 0 0 1 1 1 1 0 0 0 0 0 0 0]
 [0 0 0 0 0 0 0 1 1 1 1 0 0 0 0 0 0 0]]",False,False,0.6-0.7,True,True,True,True,True,True,True,True,True,True,True,False,False,False,False,False,False,False,True
9,9,64274be5e158fd5aa1243625,1680296898638.0,,build,"{'blocks': [{'x': 0, 'y': 0, 'height': 1, 'width': 2}, {'x': 0, 'y': 1, 'height': 2, 'width': 1}, {'x': 0, 'y': 3, 'height': 1, 'width': 2}, {'x': 0, 'y': 4, 'height': 2, 'width': 1}, {'x': 2, 'y': 0, 'height': 1, 'width': 2}, {'x': 3, 'y': 1, 'height': 2, 'width': 1}, {'x': 2, 'y': 3, 'height': 1, 'width': 2}, {'x': 2, 'y': 4, 'height': 2, 'width': 1}]}",,4,0000000000000000101000001010000011110000100100001001000011110000,talls_114_111,tall_114,wide_013,tall_111,wide_014,talls_114_111,talls_114_111,block-tower-building-undo,6,282098,0.0-6.0,block_construction_build_components,build_components_build_recall_prolific_pilot_6_towers_2_rep,63d419bfcbf7d56de633f50d,2793-746fc5b9-f318-4963-82a4-3ec1818eb7fc,Prolific,trial_end,1680296929472.0,278713.0,"[{'x': 4, 'y': 0, 'width': 2, 'height': 1}, {'x': 6, 'y': 0, 'width': 2, 'height': 1}, {'x': 4, 'y': 1, 'width': 1, 'height': 2}, {'x': 7, 'y': 1, 'width': 1, 'height': 2}, {'x': 6, 'y': 3, 'width': 2, 'height': 1}, {'x': 4, 'y': 3, 'width': 2, 'height': 1}, {'x': 4, 'y': 4, 'width': 1, 'height': 2}, {'x': 6, 'y': 4, 'width': 1, 'height': 2}]","[[True, True, True, True, True, True, True, True, True, True], [True, True, True, True, True, True, True, True, True, True], [True, True, True, True, True, True, True, True, True, True], [True, True, True, True, True, True, True, True, True, True], [False, False, False, False, False, False, True, True, True, True], [False, True, True, False, True, True, True, True, True, True], [False, True, True, False, False, False, True, True, True, True], [False, False, False, False, True, True, True, True, True, True], [True, True, True, True, True, True, True, True, True, True], [True, True, True, True, True, True, True, True, True, True], [True, True, True, True, True, True, True, True, True, True], [True, True, True, True, True, True, True, True, True, True]]",trial_end,perfect-reconstruction-translation,30835.0,1.0,1.0,"[{'x': 0, 'y': 0, 'height': 1, 'width': 2}, {'x': 2, 'y': 0, 'height': 1, 'width': 2}, {'x': 0, 'y': 1, 'height': 2, 'width': 1}, {'x': 3, 'y': 1, 'height': 2, 'width': 1}, {'x': 0, 'y': 3, 'height': 1, 'width': 2}, {'x': 2, 'y': 3, 'height': 1, 'width': 2}, {'x': 0, 'y': 4, 'height': 2, 'width': 1}, {'x': 2, 'y': 4, 'height': 2, 'width': 1}]","[[1 0 1 0]
 [1 0 1 0]
 [1 1 1 1]
 [1 0 0 1]
 [1 0 0 1]
 [1 1 1 1]]","[[0 0 0 0 0 0 0 0 0 0]
 [0 0 0 0 0 0 0 0 0 0]
 [0 0 0 0 0 0 0 0 0 0]
 [0 0 0 0 0 0 0 0 0 0]
 [0 0 0 0 0 0 0 0 0 0]
 [0 0 0 0 0 0 0 0 0 0]
 [1 0 1 0 0 0 0 0 0 0]
 [1 0 1 0 0 0 0 0 0 0]
 [1 1 1 1 0 0 0 0 0 0]
 [1 0 0 1 0 0 0 0 0 0]
 [1 0 0 1 0 0 0 0 0 0]
 [1 1 1 1 0 0 0 0 0 0]]","((0, 0, 0, 0, 0, 0, 0, 0, 0, 0), (0, 0, 0, 0, 0, 0, 0, 0, 0, 0), (0, 0, 0, 0, 0, 0, 0, 0, 0, 0), (0, 0, 0, 0, 0, 0, 0, 0, 0, 0), (0, 0, 0, 0, 0, 0, 0, 0, 0, 0), (0, 0, 0, 0, 0, 0, 0, 0, 0, 0), (1, 0, 1, 0, 0, 0, 0, 0, 0, 0), (1, 0, 1, 0, 0, 0, 0, 0, 0, 0), (1, 1, 1, 1, 0, 0, 0, 0, 0, 0), (1, 0, 0, 1, 0, 0, 0, 0, 0, 0), (1, 0, 0, 1, 0, 0, 0, 0, 0, 0), (1, 1, 1, 1, 0, 0, 0, 0, 0, 0))","[[0. 0. 0. 0. 0. 0. 0. 0. 0. 0. 0. 0. 0. 0. 0. 0. 0. 0.]
 [0. 0. 0. 0. 0. 0. 0. 0. 0. 0. 0. 0. 0. 0. 0. 0. 0. 0.]
 [0. 0. 0. 0. 0. 0. 0. 0. 0. 0. 0. 0. 0. 0. 0. 0. 0. 0.]
 [0. 0. 0. 0. 0. 0. 0. 0. 0. 0. 0. 0. 0. 0. 0. 0. 0. 0.]
 [0. 0. 0. 0. 0. 0. 0. 0. 0. 0. 0. 0. 0. 0. 0. 0. 0. 0.]
 [0. 0. 0. 0. 0. 0. 0. 0. 0. 0. 0. 0. 0. 0. 0. 0. 0. 0.]
 [0. 0. 0. 0. 0. 0. 0. 1. 0. 1. 0. 0. 0. 0. 0. 0. 0. 0.]
 [0. 0. 0. 0. 0. 0. 0. 1. 0. 1. 0. 0. 0. 0. 0. 0. 0. 0.]
 [0. 0. 0. 0. 0. 0. 0. 1. 1. 1. 1. 0. 0. 0. 0. 0. 0. 0.]
 [0. 0. 0. 0. 0. 0. 0. 1. 0. 0. 1. 0. 0. 0. 0. 0. 0. 0.]
 [0. 0. 0. 0. 0. 0. 0. 1. 0. 0. 1. 0. 0. 0. 0. 0. 0. 0.]
 [0. 0. 0. 0. 0. 0. 0. 1. 1. 1. 1. 0. 0. 0. 0. 0. 0. 0.]]",True,"((0, 0, 0, 0, 0, 0, 0, 0, 0, 0), (0, 0, 0, 0, 0, 0, 0, 0, 0, 0), (0, 0, 0, 0, 0, 0, 0, 0, 0, 0), (0, 0, 0, 0, 0, 0, 0, 0, 0, 0), (0, 0, 0, 0, 0, 0, 0, 0, 0, 0), (0, 0, 0, 0, 0, 0, 0, 0, 0, 0), (1, 0, 1, 0, 0, 0, 0, 0, 0, 0), (1, 0, 1, 0, 0, 0, 0, 0, 0, 0), (1, 1, 1, 1, 0, 0, 0, 0, 0, 0), (1, 0, 0, 1, 0, 0, 0, 0, 0, 0), (1, 0, 0, 1, 0, 0, 0, 0, 0, 0), (1, 1, 1, 1, 0, 0, 0, 0, 0, 0))",2.0,64274cc0e158fd5aa1243773,block_construction_build_components,build_components_build_recall_prolific_pilot_6_towers_2_rep,63d419bfcbf7d56de633f50d,Prolific,0.0,0.0,"{'blocks': [{'x': 4, 'y': 0, 'width': 2, 'height': 1}, {'x': 6, 'y': 0, 'width': 2, 'height': 1}, {'x': 4, 'y': 1, 'width': 1, 'height': 2}, {'x': 7, 'y': 1, 'width': 1, 'height': 2}, {'x': 4, 'y': 3, 'width': 2, 'height': 1}, {'x': 6, 'y': 3, 'width': 2, 'height': 1}, {'x': 4, 'y': 4, 'width': 1, 'height': 2}, {'x': 6, 'y': 4, 'width': 1, 'height': 2}], 'discreteWorld': [[True, True, True, True, True, True, True, True, True, True], [True, True, True, True, True, True, True, True, True, True], [True, True, True, True, True, True, True, True, True, True], [True, True, True, True, True, True, True, True, True, True], [False, False, False, False, False, False, True, True, True, True], [False, True, True, False, True, True, True, True, True, True], [False, True, True, False, False, False, True, True, True, True], [False, False, False, False, True, True, True, True, True, True], [True, True, True, True, True, True, True, True, True, True], [True, True, True, True, True, True, True, True, True, True], [True, True, True, True, True, True, True, True, True, True], [True, True, True, True, True, True, True, True, True, True]], 'n_block': 8}",2.0,"[{'height': 1, 'width': 2, 'x': 0, 'y': 0}, {'height': 1, 'width': 2, 'x': 2, 'y': 0}, {'height': 2, 'width': 1, 'x': 0, 'y': 1}, {'height': 2, 'width': 1, 'x': 3, 'y': 1}, {'height': 1, 'width': 2, 'x': 0, 'y': 3}, {'height': 1, 'width': 2, 'x': 2, 'y': 3}, {'height': 2, 'width': 1, 'x': 0, 'y': 4}, {'height': 2, 'width': 1, 'x': 2, 'y': 4}]",1680297151862.0,1680297125812.0,26050.0,16030.0,16030.0,recalled_tower,8.0,0.0,"{'blocks': [{'x': 4, 'y': 0, 'width': 2, 'height': 1}, {'x': 6, 'y': 0, 'width': 2, 'height': 1}, {'x': 4, 'y': 1, 'width': 1, 'height': 2}, {'x': 7, 'y': 1, 'width': 1, 'height': 2}, {'x': 4, 'y': 3, 'width': 2, 'height': 1}, {'x': 6, 'y': 3, 'width': 2, 'height': 1}, {'x': 4, 'y': 4, 'width': 1, 'height': 2}, {'x': 6, 'y': 4, 'width': 1, 'height': 2}], 'discreteWorld': [[True, True, True, True, True, True, True, True, True, True], [True, True, True, True, True, True, True, True, True, True], [True, True, True, True, True, True, True, True, True, True], [True, True, True, True, True, True, True, True, True, True], [False, False, False, False, False, False, True, True, True, True], [False, True, True, False, True, True, True, True, True, True], [False, True, True, False, False, False, True, True, True, True], [False, False, False, False, True, True, True, True, True, True], [True, True, True, True, True, True, True, True, True, True], [True, True, True, True, True, True, True, True, True, True], [True, True, True, True, True, True, True, True, True, True], [True, True, True, True, True, True, True, True, True, True]], 'n_block': 8}","[[0 0 0 0 0 0 0 0 0 0]
 [0 0 0 0 0 0 0 0 0 0]
 [0 0 0 0 0 0 0 0 0 0]
 [0 0 0 0 0 0 0 0 0 0]
 [0 0 0 0 0 0 0 0 0 0]
 [0 0 0 0 0 0 0 0 0 0]
 [1 0 1 0 0 0 0 0 0 0]
 [1 0 1 0 0 0 0 0 0 0]
 [1 1 1 1 0 0 0 0 0 0]
 [1 0 0 1 0 0 0 0 0 0]
 [1 0 0 1 0 0 0 0 0 0]
 [1 1 1 1 0 0 0 0 0 0]]","[[0. 0. 0. 0. 0. 0. 0. 0. 0. 0. 0. 0. 0. 0. 0. 0. 0. 0.]
 [0. 0. 0. 0. 0. 0. 0. 0. 0. 0. 0. 0. 0. 0. 0. 0. 0. 0.]
 [0. 0. 0. 0. 0. 0. 0. 0. 0. 0. 0. 0. 0. 0. 0. 0. 0. 0.]
 [0. 0. 0. 0. 0. 0. 0. 0. 0. 0. 0. 0. 0. 0. 0. 0. 0. 0.]
 [0. 0. 0. 0. 0. 0. 0. 0. 0. 0. 0. 0. 0. 0. 0. 0. 0. 0.]
 [0. 0. 0. 0. 0. 0. 0. 0. 0. 0. 0. 0. 0. 0. 0. 0. 0. 0.]
 [1. 0. 1. 0. 0. 0. 0. 0. 0. 0. 0. 0. 0. 0. 0. 0. 0. 0.]
 [1. 0. 1. 0. 0. 0. 0. 0. 0. 0. 0. 0. 0. 0. 0. 0. 0. 0.]
 [1. 1. 1. 1. 0. 0. 0. 0. 0. 0. 0. 0. 0. 0. 0. 0. 0. 0.]
 [1. 0. 0. 1. 0. 0. 0. 0. 0. 0. 0. 0. 0. 0. 0. 0. 0. 0.]
 [1. 0. 0. 1. 0. 0. 0. 0. 0. 0. 0. 0. 0. 0. 0. 0. 0. 0.]
 [1. 1. 1. 1. 0. 0. 0. 0. 0. 0. 0. 0. 0. 0. 0. 0. 0. 0.]]",talls_114_111,1.0,build,"[[0 0 0 0 0 0 0 0 0 0 0 0 0 0 0 0 0 0]
 [0 0 0 0 0 0 0 0 0 0 0 0 0 0 0 0 0 0]
 [0 0 0 0 0 0 0 0 0 0 0 0 0 0 0 0 0 0]
 [0 0 0 0 0 0 0 0 0 0 0 0 0 0 0 0 0 0]
 [0 0 0 0 0 0 0 0 0 0 0 0 0 0 0 0 0 0]
 [0 0 0 0 0 0 0 0 0 0 0 0 0 0 0 0 0 0]
 [0 0 0 0 0 0 0 1 0 1 0 0 0 0 0 0 0 0]
 [0 0 0 0 0 0 0 1 0 1 0 0 0 0 0 0 0 0]
 [0 0 0 0 0 0 0 1 1 1 1 0 0 0 0 0 0 0]
 [0 0 0 0 0 0 0 1 0 0 1 0 0 0 0 0 0 0]
 [0 0 0 0 0 0 0 1 0 0 1 0 0 0 0 0 0 0]
 [0 0 0 0 0 0 0 1 1 1 1 0 0 0 0 0 0 0]]",True,True,0.9-1,True,True,True,True,True,True,True,True,True,True,True,True,True,True,True,True,True,True,True
10,11,64274bf6e158fd5aa1243632,1680296934155.0,1680296949193.0,view,"{'blocks': [{'x': 0, 'y': 0, 'height': 1, 'width': 2}, {'x': 0, 'y': 1, 'height': 2, 'width': 1}, {'x': 0, 'y': 3, 'height': 1, 'width': 2}, {'x': 1, 'y': 4, 'height': 2, 'width': 1}, {'x': 2, 'y': 0, 'height': 1, 'width': 2}, {'x': 3, 'y': 1, 'height': 2, 'width': 1}, {'x': 2, 'y': 3, 'height': 1, 'width': 2}, {'x': 3, 'y': 4, 'height': 2, 'width': 1}]}",,5,0000000000000000010100000101000011110000100100001001000011110000,talls_100_097,tall_100,wide_013,tall_097,wide_006,talls_100_097,talls_100_097,block-tower-viewing,7,298780,0.0-7.0,block_construction_build_components,build_components_build_recall_prolific_pilot_6_towers_2_rep,63d419bfcbf7d56de633f50d,2793-746fc5b9-f318-4963-82a4-3ec1818eb7fc,Prolific,trial_end,,,,,,,,1.0,,"[{'x': 0, 'y': 0, 'height': 1, 'width': 2}, {'x': 2, 'y': 0, 'height': 1, 'width': 2}, {'x': 0, 'y': 1, 'height': 2, 'width': 1}, {'x': 3, 'y': 1, 'height': 2, 'width': 1}, {'x': 0, 'y': 3, 'height': 1, 'width': 2}, {'x': 2, 'y': 3, 'height': 1, 'width': 2}, {'x': 1, 'y': 4, 'height': 2, 'width': 1}, {'x': 3, 'y': 4, 'height': 2, 'width': 1}]","[[0 1 0 1]
 [0 1 0 1]
 [1 1 1 1]
 [1 0 0 1]
 [1 0 0 1]
 [1 1 1 1]]","[[0 0 0 0 0 0 0 0 0 0]
 [0 0 0 0 0 0 0 0 0 0]
 [0 0 0 0 0 0 0 0 0 0]
 [0 0 0 0 0 0 0 0 0 0]
 [0 0 0 0 0 0 0 0 0 0]
 [0 0 0 0 0 0 0 0 0 0]
 [0 1 0 1 0 0 0 0 0 0]
 [0 1 0 1 0 0 0 0 0 0]
 [1 1 1 1 0 0 0 0 0 0]
 [1 0 0 1 0 0 0 0 0 0]
 [1 0 0 1 0 0 0 0 0 0]
 [1 1 1 1 0 0 0 0 0 0]]","((0, 0, 0, 0, 0, 0, 0, 0, 0, 0), (0, 0, 0, 0, 0, 0, 0, 0, 0, 0), (0, 0, 0, 0, 0, 0, 0, 0, 0, 0), (0, 0, 0, 0, 0, 0, 0, 0, 0, 0), (0, 0, 0, 0, 0, 0, 0, 0, 0, 0), (0, 0, 0, 0, 0, 0, 0, 0, 0, 0), (0, 1, 0, 1, 0, 0, 0, 0, 0, 0), (0, 1, 0, 1, 0, 0, 0, 0, 0, 0), (1, 1, 1, 1, 0, 0, 0, 0, 0, 0), (1, 0, 0, 1, 0, 0, 0, 0, 0, 0), (1, 0, 0, 1, 0, 0, 0, 0, 0, 0), (1, 1, 1, 1, 0, 0, 0, 0, 0, 0))","[[0. 0. 0. 0. 0. 0. 0. 0. 0. 0. 0. 0. 0. 0. 0. 0. 0. 0.]
 [0. 0. 0. 0. 0. 0. 0. 0. 0. 0. 0. 0. 0. 0. 0. 0. 0. 0.]
 [0. 0. 0. 0. 0. 0. 0. 0. 0. 0. 0. 0. 0. 0. 0. 0. 0. 0.]
 [0. 0. 0. 0. 0. 0. 0. 0. 0. 0. 0. 0. 0. 0. 0. 0. 0. 0.]
 [0. 0. 0. 0. 0. 0. 0. 0. 0. 0. 0. 0. 0. 0. 0. 0. 0. 0.]
 [0. 0. 0. 0. 0. 0. 0. 0. 0. 0. 0. 0. 0. 0. 0. 0. 0. 0.]
 [0. 0. 0. 0. 0. 0. 0. 0. 1. 0. 1. 0. 0. 0. 0. 0. 0. 0.]
 [0. 0. 0. 0. 0. 0. 0. 0. 1. 0. 1. 0. 0. 0. 0. 0. 0. 0.]
 [0. 0. 0. 0. 0. 0. 0. 1. 1. 1. 1. 0. 0. 0. 0. 0. 0. 0.]
 [0. 0. 0. 0. 0. 0. 0. 1. 0. 0. 1. 0. 0. 0. 0. 0. 0. 0.]
 [0. 0. 0. 0. 0. 0. 0. 1. 0. 0. 1. 0. 0. 0. 0. 0. 0. 0.]
 [0. 0. 0. 0. 0. 0. 0. 1. 1. 1. 1. 0. 0. 0. 0. 0. 0. 0.]]",True,"((0, 0, 0, 0, 0, 0, 0, 0, 0, 0), (0, 0, 0, 0, 0, 0, 0, 0, 0, 0), (0, 0, 0, 0, 0, 0, 0, 0, 0, 0), (0, 0, 0, 0, 0, 0, 0, 0, 0, 0), (0, 0, 0, 0, 0, 0, 0, 0, 0, 0), (0, 0, 0, 0, 0, 0, 0, 0, 0, 0), (0, 1, 0, 1, 0, 0, 0, 0, 0, 0), (0, 1, 0, 1, 0, 0, 0, 0, 0, 0), (1, 1, 1, 1, 0, 0, 0, 0, 0, 0), (1, 0, 0, 1, 0, 0, 0, 0, 0, 0), (1, 0, 0, 1, 0, 0, 0, 0, 0, 0), (1, 1, 1, 1, 0, 0, 0, 0, 0, 0))",0.0,64274cb0e158fd5aa124374d,block_construction_build_components,build_components_build_recall_prolific_pilot_6_towers_2_rep,63d419bfcbf7d56de633f50d,Prolific,0.0,0.0,"{'blocks': [{'x': 4, 'y': 0, 'width': 2, 'height': 1}, {'x': 6, 'y': 0, 'width': 2, 'height': 1}, {'x': 4, 'y': 1, 'width': 1, 'height': 2}, {'x': 7, 'y': 1, 'width': 1, 'height': 2}, {'x': 4, 'y': 3, 'width': 2, 'height': 1}, {'x': 6, 'y': 3, 'width': 2, 'height': 1}, {'x': 7, 'y': 4, 'width': 1, 'height': 2}, {'x': 5, 'y': 4, 'width': 1, 'height': 2}], 'discreteWorld': [[True, True, True, True, True, True, True, True, True, True], [True, True, True, True, True, True, True, True, True, True], [True, True, True, True, True, True, True, True, True, True], [True, True, True, True, True, True, True, True, True, True], [False, False, False, False, True, True, True, True, True, True], [False, True, True, False, False, False, True, True, True, True], [False, True, True, False, True, True, True, True, True, True], [False, False, False, False, False, False, True, True, True, True], [True, True, True, True, True, True, True, True, True, True], [True, True, True, True, True, True, True, True, True, True], [True, True, True, True, True, True, True, True, True, True], [True, True, True, True, True, True, True, True, True, True]], 'n_block': 8}",1.0,"[{'height': 1, 'width': 2, 'x': 0, 'y': 0}, {'height': 1, 'width': 2, 'x': 2, 'y': 0}, {'height': 2, 'width': 1, 'x': 0, 'y': 1}, {'height': 2, 'width': 1, 'x': 3, 'y': 1}, {'height': 1, 'width': 2, 'x': 0, 'y': 3}, {'height': 1, 'width': 2, 'x': 2, 'y': 3}, {'height': 2, 'width': 1, 'x': 3, 'y': 4}, {'height': 2, 'width': 1, 'x': 1, 'y': 4}]",1680297135820.0,1680297125812.0,10008.0,10008.0,9970.0,recalled_tower,8.0,0.0,"{'blocks': [{'x': 4, 'y': 0, 'width': 2, 'height': 1}, {'x': 6, 'y': 0, 'width': 2, 'height': 1}, {'x': 4, 'y': 1, 'width': 1, 'height': 2}, {'x': 7, 'y': 1, 'width': 1, 'height': 2}, {'x': 4, 'y': 3, 'width': 2, 'height': 1}, {'x': 6, 'y': 3, 'width': 2, 'height': 1}, {'x': 7, 'y': 4, 'width': 1, 'height': 2}, {'x': 5, 'y': 4, 'width': 1, 'height': 2}], 'discreteWorld': [[True, True, True, True, True, True, True, True, True, True], [True, True, True, True, True, True, True, True, True, True], [True, True, True, True, True, True, True, True, True, True], [True, True, True, True, True, True, True, True, True, True], [False, False, False, False, True, True, True, True, True, True], [False, True, True, False, False, False, True, True, True, True], [False, True, True, False, True, True, True, True, True, True], [False, False, False, False, False, False, True, True, True, True], [True, True, True, True, True, True, True, True, True, True], [True, True, True, True, True, True, True, True, True, True], [True, True, True, True, True, True, True, True, True, True], [True, True, True, True, True, True, True, True, True, True]], 'n_block': 8}","[[0 0 0 0 0 0 0 0 0 0]
 [0 0 0 0 0 0 0 0 0 0]
 [0 0 0 0 0 0 0 0 0 0]
 [0 0 0 0 0 0 0 0 0 0]
 [0 0 0 0 0 0 0 0 0 0]
 [0 0 0 0 0 0 0 0 0 0]
 [0 1 0 1 0 0 0 0 0 0]
 [0 1 0 1 0 0 0 0 0 0]
 [1 1 1 1 0 0 0 0 0 0]
 [1 0 0 1 0 0 0 0 0 0]
 [1 0 0 1 0 0 0 0 0 0]
 [1 1 1 1 0 0 0 0 0 0]]","[[0. 0. 0. 0. 0. 0. 0. 0. 0. 0. 0. 0. 0. 0. 0. 0. 0. 0.]
 [0. 0. 0. 0. 0. 0. 0. 0. 0. 0. 0. 0. 0. 0. 0. 0. 0. 0.]
 [0. 0. 0. 0. 0. 0. 0. 0. 0. 0. 0. 0. 0. 0. 0. 0. 0. 0.]
 [0. 0. 0. 0. 0. 0. 0. 0. 0. 0. 0. 0. 0. 0. 0. 0. 0. 0.]
 [0. 0. 0. 0. 0. 0. 0. 0. 0. 0. 0. 0. 0. 0. 0. 0. 0. 0.]
 [0. 0. 0. 0. 0. 0. 0. 0. 0. 0. 0. 0. 0. 0. 0. 0. 0. 0.]
 [0. 1. 0. 1. 0. 0. 0. 0. 0. 0. 0. 0. 0. 0. 0. 0. 0. 0.]
 [0. 1. 0. 1. 0. 0. 0. 0. 0. 0. 0. 0. 0. 0. 0. 0. 0. 0.]
 [1. 1. 1. 1. 0. 0. 0. 0. 0. 0. 0. 0. 0. 0. 0. 0. 0. 0.]
 [1. 0. 0. 1. 0. 0. 0. 0. 0. 0. 0. 0. 0. 0. 0. 0. 0. 0.]
 [1. 0. 0. 1. 0. 0. 0. 0. 0. 0. 0. 0. 0. 0. 0. 0. 0. 0.]
 [1. 1. 1. 1. 0. 0. 0. 0. 0. 0. 0. 0. 0. 0. 0. 0. 0. 0.]]",talls_100_097,1.0,view,"[[0 0 0 0 0 0 0 0 0 0 0 0 0 0 0 0 0 0]
 [0 0 0 0 0 0 0 0 0 0 0 0 0 0 0 0 0 0]
 [0 0 0 0 0 0 0 0 0 0 0 0 0 0 0 0 0 0]
 [0 0 0 0 0 0 0 0 0 0 0 0 0 0 0 0 0 0]
 [0 0 0 0 0 0 0 0 0 0 0 0 0 0 0 0 0 0]
 [0 0 0 0 0 0 0 0 0 0 0 0 0 0 0 0 0 0]
 [0 0 0 0 0 0 0 0 1 0 1 0 0 0 0 0 0 0]
 [0 0 0 0 0 0 0 0 1 0 1 0 0 0 0 0 0 0]
 [0 0 0 0 0 0 0 1 1 1 1 0 0 0 0 0 0 0]
 [0 0 0 0 0 0 0 1 0 0 1 0 0 0 0 0 0 0]
 [0 0 0 0 0 0 0 1 0 0 1 0 0 0 0 0 0 0]
 [0 0 0 0 0 0 0 1 1 1 1 0 0 0 0 0 0 0]]",True,True,0.9-1,True,True,True,True,True,True,True,True,True,True,True,True,True,True,True,True,True,True,True
11,12,64274bfee158fd5aa1243639,1680296942459.0,1680296957485.0,view,"{'blocks': [{'x': 0, 'y': 0, 'height': 1, 'width': 2}, {'x': 1, 'y': 1, 'height': 2, 'width': 1}, {'x': 0, 'y': 3, 'height': 1, 'width': 2}, {'x': 0, 'y': 4, 'height': 2, 'width': 1}, {'x': 2, 'y': 0, 'height': 2, 'width': 1}, {'x': 2, 'y': 2, 'height': 1, 'width': 2}, {'x': 2, 'y': 3, 'height': 2, 'width': 1}, {'x': 2, 'y': 5, 'height': 1, 'width': 2}]}",,1,0000000000000000101100001010000011100000011100000110000011100000,talls_111_127,tall_111,wide_011,tall_127,wide_015,talls_111_127,talls_111_127,block-tower-viewing,3,119325,0.0-3.0,block_construction_build_components,build_components_build_recall_prolific_pilot_6_towers_2_rep,5b1ba337c9d3cb00011030ca,7773-1b67ae19-c0ba-4173-916f-6905b72c894c,Prolific,trial_end,,,,,,,,1.0,,"[{'x': 0, 'y': 0, 'height': 1, 'width': 2}, {'x': 2, 'y': 0, 'height': 2, 'width': 1}, {'x': 1, 'y': 1, 'height': 2, 'width': 1}, {'x': 2, 'y': 2, 'height': 1, 'width': 2}, {'x': 0, 'y': 3, 'height': 1, 'width': 2}, {'x': 2, 'y': 3, 'height': 2, 'width': 1}, {'x': 0, 'y': 4, 'height': 2, 'width': 1}, {'x': 2, 'y': 5, 'height': 1, 'width': 2}]","[[1 0 1 1]
 [1 0 1 0]
 [1 1 1 0]
 [0 1 1 1]
 [0 1 1 0]
 [1 1 1 0]]","[[0 0 0 0 0 0 0 0 0 0]
 [0 0 0 0 0 0 0 0 0 0]
 [0 0 0 0 0 0 0 0 0 0]
 [0 0 0 0 0 0 0 0 0 0]
 [0 0 0 0 0 0 0 0 0 0]
 [0 0 0 0 0 0 0 0 0 0]
 [1 0 1 1 0 0 0 0 0 0]
 [1 0 1 0 0 0 0 0 0 0]
 [1 1 1 0 0 0 0 0 0 0]
 [0 1 1 1 0 0 0 0 0 0]
 [0 1 1 0 0 0 0 0 0 0]
 [1 1 1 0 0 0 0 0 0 0]]","((0, 0, 0, 0, 0, 0, 0, 0, 0, 0), (0, 0, 0, 0, 0, 0, 0, 0, 0, 0), (0, 0, 0, 0, 0, 0, 0, 0, 0, 0), (0, 0, 0, 0, 0, 0, 0, 0, 0, 0), (0, 0, 0, 0, 0, 0, 0, 0, 0, 0), (0, 0, 0, 0, 0, 0, 0, 0, 0, 0), (1, 0, 1, 1, 0, 0, 0, 0, 0, 0), (1, 0, 1, 0, 0, 0, 0, 0, 0, 0), (1, 1, 1, 0, 0, 0, 0, 0, 0, 0), (0, 1, 1, 1, 0, 0, 0, 0, 0, 0), (0, 1, 1, 0, 0, 0, 0, 0, 0, 0), (1, 1, 1, 0, 0, 0, 0, 0, 0, 0))","[[0. 0. 0. 0. 0. 0. 0. 0. 0. 0. 0. 0. 0. 0. 0. 0. 0. 0.]
 [0. 0. 0. 0. 0. 0. 0. 0. 0. 0. 0. 0. 0. 0. 0. 0. 0. 0.]
 [0. 0. 0. 0. 0. 0. 0. 0. 0. 0. 0. 0. 0. 0. 0. 0. 0. 0.]
 [0. 0. 0. 0. 0. 0. 0. 0. 0. 0. 0. 0. 0. 0. 0. 0. 0. 0.]
 [0. 0. 0. 0. 0. 0. 0. 0. 0. 0. 0. 0. 0. 0. 0. 0. 0. 0.]
 [0. 0. 0. 0. 0. 0. 0. 0. 0. 0. 0. 0. 0. 0. 0. 0. 0. 0.]
 [0. 0. 0. 0. 0. 0. 0. 1. 0. 1. 1. 0. 0. 0. 0. 0. 0. 0.]
 [0. 0. 0. 0. 0. 0. 0. 1. 0. 1. 0. 0. 0. 0. 0. 0. 0. 0.]
 [0. 0. 0. 0. 0. 0. 0. 1. 1. 1. 0. 0. 0. 0. 0. 0. 0. 0.]
 [0. 0. 0. 0. 0. 0. 0. 0. 1. 1. 1. 0. 0. 0. 0. 0. 0. 0.]
 [0. 0. 0. 0. 0. 0. 0. 0. 1. 1. 0. 0. 0. 0. 0. 0. 0. 0.]
 [0. 0. 0. 0. 0. 0. 0. 1. 1. 1. 0. 0. 0. 0. 0. 0. 0. 0.]]",False,,,,,,,,,,,,,,,,,,,,,,,,no_match,0.0,,,False,,,False,False,False,False,False,False,False,False,False,False,False,False,False,False,False,False,False,False,False
12,14,64274c09e158fd5aa124364a,1680296950834.0,,build,"{'blocks': [{'x': 0, 'y': 0, 'height': 1, 'width': 2}, {'x': 1, 'y': 1, 'height': 2, 'width': 1}, {'x': 1, 'y': 3, 'height': 2, 'width': 1}, {'x': 0, 'y': 5, 'height': 1, 'width': 2}, {'x': 3, 'y': 0, 'height': 2, 'width': 1}, {'x': 2, 'y': 2, 'height': 1, 'width': 2}, {'x': 3, 'y': 3, 'height': 2, 'width': 1}, {'x': 2, 'y': 5, 'height': 1, 'width': 2}]}",,6,0000000000000000111100000101000001010000011100000101000011010000,talls_118_121,tall_118,wide_010,tall_121,wide_022,talls_118_121,talls_118_121,block-tower-building-undo,8,318248,0.0-8.0,block_construction_build_components,build_components_build_recall_prolific_pilot_6_towers_2_rep,63d419bfcbf7d56de633f50d,2793-746fc5b9-f318-4963-82a4-3ec1818eb7fc,Prolific,trial_end,1680296965591.0,314832.0,"[{'x': 4, 'y': 0, 'width': 2, 'height': 1}, {'x': 5, 'y': 1, 'width': 1, 'height': 2}, {'x': 7, 'y': 0, 'width': 1, 'height': 2}, {'x': 6, 'y': 2, 'width': 2, 'height': 1}, {'x': 5, 'y': 3, 'width': 1, 'height': 2}, {'x': 7, 'y': 3, 'width': 1, 'height': 2}, {'x': 6, 'y': 5, 'width': 2, 'height': 1}, {'x': 4, 'y': 5, 'width': 2, 'height': 1}]","[[True, True, True, True, True, True, True, True, True, True], [True, True, True, True, True, True, True, True, True, True], [True, True, True, True, True, True, True, True, True, True], [True, True, True, True, True, True, True, True, True, True], [False, True, True, True, True, False, True, True, True, True], [False, False, False, False, False, False, True, True, True, True], [True, True, False, True, True, False, True, True, True, True], [False, False, False, False, False, False, True, True, True, True], [True, True, True, True, True, True, True, True, True, True], [True, True, True, True, True, True, True, True, True, True], [True, True, True, True, True, True, True, True, True, True], [True, True, True, True, True, True, True, True, True, True]]",trial_end,perfect-reconstruction-translation,14758.0,1.0,0.0,"[{'x': 0, 'y': 0, 'height': 1, 'width': 2}, {'x': 3, 'y': 0, 'height': 2, 'width': 1}, {'x': 1, 'y': 1, 'height': 2, 'width': 1}, {'x': 2, 'y': 2, 'height': 1, 'width': 2}, {'x': 1, 'y': 3, 'height': 2, 'width': 1}, {'x': 3, 'y': 3, 'height': 2, 'width': 1}, {'x': 0, 'y': 5, 'height': 1, 'width': 2}, {'x': 2, 'y': 5, 'height': 1, 'width': 2}]","[[1 1 1 1]
 [0 1 0 1]
 [0 1 0 1]
 [0 1 1 1]
 [0 1 0 1]
 [1 1 0 1]]","[[0 0 0 0 0 0 0 0 0 0]
 [0 0 0 0 0 0 0 0 0 0]
 [0 0 0 0 0 0 0 0 0 0]
 [0 0 0 0 0 0 0 0 0 0]
 [0 0 0 0 0 0 0 0 0 0]
 [0 0 0 0 0 0 0 0 0 0]
 [1 1 1 1 0 0 0 0 0 0]
 [0 1 0 1 0 0 0 0 0 0]
 [0 1 0 1 0 0 0 0 0 0]
 [0 1 1 1 0 0 0 0 0 0]
 [0 1 0 1 0 0 0 0 0 0]
 [1 1 0 1 0 0 0 0 0 0]]","((0, 0, 0, 0, 0, 0, 0, 0, 0, 0), (0, 0, 0, 0, 0, 0, 0, 0, 0, 0), (0, 0, 0, 0, 0, 0, 0, 0, 0, 0), (0, 0, 0, 0, 0, 0, 0, 0, 0, 0), (0, 0, 0, 0, 0, 0, 0, 0, 0, 0), (0, 0, 0, 0, 0, 0, 0, 0, 0, 0), (1, 1, 1, 1, 0, 0, 0, 0, 0, 0), (0, 1, 0, 1, 0, 0, 0, 0, 0, 0), (0, 1, 0, 1, 0, 0, 0, 0, 0, 0), (0, 1, 1, 1, 0, 0, 0, 0, 0, 0), (0, 1, 0, 1, 0, 0, 0, 0, 0, 0), (1, 1, 0, 1, 0, 0, 0, 0, 0, 0))","[[0. 0. 0. 0. 0. 0. 0. 0. 0. 0. 0. 0. 0. 0. 0. 0. 0. 0.]
 [0. 0. 0. 0. 0. 0. 0. 0. 0. 0. 0. 0. 0. 0. 0. 0. 0. 0.]
 [0. 0. 0. 0. 0. 0. 0. 0. 0. 0. 0. 0. 0. 0. 0. 0. 0. 0.]
 [0. 0. 0. 0. 0. 0. 0. 0. 0. 0. 0. 0. 0. 0. 0. 0. 0. 0.]
 [0. 0. 0. 0. 0. 0. 0. 0. 0. 0. 0. 0. 0. 0. 0. 0. 0. 0.]
 [0. 0. 0. 0. 0. 0. 0. 0. 0. 0. 0. 0. 0. 0. 0. 0. 0. 0.]
 [0. 0. 0. 0. 0. 0. 0. 1. 1. 1. 1. 0. 0. 0. 0. 0. 0. 0.]
 [0. 0. 0. 0. 0. 0. 0. 0. 1. 0. 1. 0. 0. 0. 0. 0. 0. 0.]
 [0. 0. 0. 0. 0. 0. 0. 0. 1. 0. 1. 0. 0. 0. 0. 0. 0. 0.]
 [0. 0. 0. 0. 0. 0. 0. 0. 1. 1. 1. 0. 0. 0. 0. 0. 0. 0.]
 [0. 0. 0. 0. 0. 0. 0. 0. 1. 0. 1. 0. 0. 0. 0. 0. 0. 0.]
 [0. 0. 0. 0. 0. 0. 0. 1. 1. 0. 1. 0. 0. 0. 0. 0. 0. 0.]]",False,,,,,,,,,,,,,,,,,,,,,,,,no_match,0.0,,,False,,,False,False,False,False,False,False,False,False,False,False,False,False,False,False,False,False,False,False,False
13,16,64274c17e158fd5aa124365f,1680296945483.0,1680296960582.0,view,"{'blocks': [{'x': 1, 'y': 0, 'height': 2, 'width': 1}, {'x': 0, 'y': 2, 'height': 1, 'width': 2}, {'x': 0, 'y': 3, 'height': 1, 'width': 2}, {'x': 1, 'y': 4, 'height': 2, 'width': 1}, {'x': 2, 'y': 0, 'height': 1, 'width': 2}, {'x': 3, 'y': 1, 'height': 2, 'width': 1}, {'x': 2, 'y': 3, 'height': 1, 'width': 2}, {'x': 2, 'y': 4, 'height': 2, 'width': 1}]}",,1,0000000000000000011000000110000011110000110100000101000001110000,talls_101_111,tall_101,wide_018,tall_111,wide_008,talls_101_111,talls_101_111,block-tower-viewing,3,171509,0.0-3.0,block_construction_build_components,build_components_build_recall_prolific_pilot_6_towers_2_rep,63e51bec3af1cc5baf0c726a,6806-1b0c1fdb-1f6a-435c-8953-e906215530ab,Prolific,trial_end,,,,,,,,1.0,,"[{'x': 1, 'y': 0, 'height': 2, 'width': 1}, {'x': 2, 'y': 0, 'height': 1, 'width': 2}, {'x': 3, 'y': 1, 'height': 2, 'width': 1}, {'x': 0, 'y': 2, 'height': 1, 'width': 2}, {'x': 0, 'y': 3, 'height': 1, 'width': 2}, {'x': 2, 'y': 3, 'height': 1, 'width': 2}, {'x': 1, 'y': 4, 'height': 2, 'width': 1}, {'x': 2, 'y': 4, 'height': 2, 'width': 1}]","[[0 1 1 0]
 [0 1 1 0]
 [1 1 1 1]
 [1 1 0 1]
 [0 1 0 1]
 [0 1 1 1]]","[[0 0 0 0 0 0 0 0 0 0]
 [0 0 0 0 0 0 0 0 0 0]
 [0 0 0 0 0 0 0 0 0 0]
 [0 0 0 0 0 0 0 0 0 0]
 [0 0 0 0 0 0 0 0 0 0]
 [0 0 0 0 0 0 0 0 0 0]
 [0 1 1 0 0 0 0 0 0 0]
 [0 1 1 0 0 0 0 0 0 0]
 [1 1 1 1 0 0 0 0 0 0]
 [1 1 0 1 0 0 0 0 0 0]
 [0 1 0 1 0 0 0 0 0 0]
 [0 1 1 1 0 0 0 0 0 0]]","((0, 0, 0, 0, 0, 0, 0, 0, 0, 0), (0, 0, 0, 0, 0, 0, 0, 0, 0, 0), (0, 0, 0, 0, 0, 0, 0, 0, 0, 0), (0, 0, 0, 0, 0, 0, 0, 0, 0, 0), (0, 0, 0, 0, 0, 0, 0, 0, 0, 0), (0, 0, 0, 0, 0, 0, 0, 0, 0, 0), (0, 1, 1, 0, 0, 0, 0, 0, 0, 0), (0, 1, 1, 0, 0, 0, 0, 0, 0, 0), (1, 1, 1, 1, 0, 0, 0, 0, 0, 0), (1, 1, 0, 1, 0, 0, 0, 0, 0, 0), (0, 1, 0, 1, 0, 0, 0, 0, 0, 0), (0, 1, 1, 1, 0, 0, 0, 0, 0, 0))","[[0. 0. 0. 0. 0. 0. 0. 0. 0. 0. 0. 0. 0. 0. 0. 0. 0. 0.]
 [0. 0. 0. 0. 0. 0. 0. 0. 0. 0. 0. 0. 0. 0. 0. 0. 0. 0.]
 [0. 0. 0. 0. 0. 0. 0. 0. 0. 0. 0. 0. 0. 0. 0. 0. 0. 0.]
 [0. 0. 0. 0. 0. 0. 0. 0. 0. 0. 0. 0. 0. 0. 0. 0. 0. 0.]
 [0. 0. 0. 0. 0. 0. 0. 0. 0. 0. 0. 0. 0. 0. 0. 0. 0. 0.]
 [0. 0. 0. 0. 0. 0. 0. 0. 0. 0. 0. 0. 0. 0. 0. 0. 0. 0.]
 [0. 0. 0. 0. 0. 0. 0. 0. 1. 1. 0. 0. 0. 0. 0. 0. 0. 0.]
 [0. 0. 0. 0. 0. 0. 0. 0. 1. 1. 0. 0. 0. 0. 0. 0. 0. 0.]
 [0. 0. 0. 0. 0. 0. 0. 1. 1. 1. 1. 0. 0. 0. 0. 0. 0. 0.]
 [0. 0. 0. 0. 0. 0. 0. 1. 1. 0. 1. 0. 0. 0. 0. 0. 0. 0.]
 [0. 0. 0. 0. 0. 0. 0. 0. 1. 0. 1. 0. 0. 0. 0. 0. 0. 0.]
 [0. 0. 0. 0. 0. 0. 0. 0. 1. 1. 1. 0. 0. 0. 0. 0. 0. 0.]]",True,"((0, 0, 0, 0, 0, 0, 0, 0, 0, 0), (0, 0, 0, 0, 0, 0, 0, 0, 0, 0), (0, 0, 0, 0, 0, 0, 0, 0, 0, 0), (0, 0, 0, 0, 0, 0, 0, 0, 0, 0), (0, 0, 0, 0, 0, 0, 0, 0, 0, 0), (0, 0, 0, 0, 0, 0, 0, 0, 0, 0), (1, 1, 1, 0, 0, 0, 0, 0, 0, 0), (1, 0, 1, 0, 0, 0, 0, 0, 0, 0), (1, 0, 1, 1, 0, 0, 0, 0, 0, 0), (1, 0, 0, 1, 0, 0, 0, 0, 0, 0), (1, 0, 0, 1, 0, 0, 0, 0, 0, 0), (1, 1, 1, 1, 0, 0, 0, 0, 0, 0))",25.0,64274f79e158fd5aa1243b67,block_construction_build_components,build_components_build_recall_prolific_pilot_6_towers_2_rep,63e51bec3af1cc5baf0c726a,Prolific,0.0,0.0,"{'blocks': [{'x': 5, 'y': 0, 'width': 2, 'height': 1}, {'x': 7, 'y': 0, 'width': 2, 'height': 1}, {'x': 5, 'y': 1, 'width': 1, 'height': 2}, {'x': 5, 'y': 3, 'width': 1, 'height': 2}, {'x': 8, 'y': 1, 'width': 1, 'height': 2}, {'x': 7, 'y': 3, 'width': 2, 'height': 1}, {'x': 7, 'y': 4, 'width': 1, 'height': 2}, {'x': 5, 'y': 5, 'width': 2, 'height': 1}], 'discreteWorld': [[True, True, True, True, True, True, True, True, True, True], [True, True, True, True, True, True, True, True, True, True], [True, True, True, True, True, True, True, True, True, True], [True, True, True, True, True, True, True, True, True, True], [True, True, True, True, True, True, True, True, True, True], [False, False, False, False, False, False, True, True, True, True], [False, True, True, True, True, False, True, True, True, True], [False, True, True, False, False, False, True, True, True, True], [False, False, False, False, True, True, True, True, True, True], [True, True, True, True, True, True, True, True, True, True], [True, True, True, True, True, True, True, True, True, True], [True, True, True, True, True, True, True, True, True, True]], 'n_block': 8}",6.0,"[{'height': 1, 'width': 2, 'x': 0, 'y': 0}, {'height': 1, 'width': 2, 'x': 2, 'y': 0}, {'height': 2, 'width': 1, 'x': 0, 'y': 1}, {'height': 2, 'width': 1, 'x': 0, 'y': 3}, {'height': 2, 'width': 1, 'x': 3, 'y': 1}, {'height': 1, 'width': 2, 'x': 2, 'y': 3}, {'height': 2, 'width': 1, 'x': 2, 'y': 4}, {'height': 1, 'width': 2, 'x': 0, 'y': 5}]",1680297826901.0,1680297380767.0,446134.0,37665.0,37665.0,recalled_tower,8.0,0.0,"{'blocks': [{'x': 5, 'y': 0, 'width': 2, 'height': 1}, {'x': 7, 'y': 0, 'width': 2, 'height': 1}, {'x': 5, 'y': 1, 'width': 1, 'height': 2}, {'x': 5, 'y': 3, 'width': 1, 'height': 2}, {'x': 8, 'y': 1, 'width': 1, 'height': 2}, {'x': 7, 'y': 3, 'width': 2, 'height': 1}, {'x': 7, 'y': 4, 'width': 1, 'height': 2}, {'x': 5, 'y': 5, 'width': 2, 'height': 1}], 'discreteWorld': [[True, True, True, True, True, True, True, True, True, True], [True, True, True, True, True, True, True, True, True, True], [True, True, True, True, True, True, True, True, True, True], [True, True, True, True, True, True, True, True, True, True], [True, True, True, True, True, True, True, True, True, True], [False, False, False, False, False, False, True, True, True, True], [False, True, True, True, True, False, True, True, True, True], [False, True, True, False, False, False, True, True, True, True], [False, False, False, False, True, True, True, True, True, True], [True, True, True, True, True, True, True, True, True, True], [True, True, True, True, True, True, True, True, True, True], [True, True, True, True, True, True, True, True, True, True]], 'n_block': 8}","[[0 0 0 0 0 0 0 0 0 0]
 [0 0 0 0 0 0 0 0 0 0]
 [0 0 0 0 0 0 0 0 0 0]
 [0 0 0 0 0 0 0 0 0 0]
 [0 0 0 0 0 0 0 0 0 0]
 [0 0 0 0 0 0 0 0 0 0]
 [1 1 1 0 0 0 0 0 0 0]
 [1 0 1 0 0 0 0 0 0 0]
 [1 0 1 1 0 0 0 0 0 0]
 [1 0 0 1 0 0 0 0 0 0]
 [1 0 0 1 0 0 0 0 0 0]
 [1 1 1 1 0 0 0 0 0 0]]","[[0. 0. 0. 0. 0. 0. 0. 0. 0. 0. 0. 0. 0. 0. 0. 0. 0. 0.]
 [0. 0. 0. 0. 0. 0. 0. 0. 0. 0. 0. 0. 0. 0. 0. 0. 0. 0.]
 [0. 0. 0. 0. 0. 0. 0. 0. 0. 0. 0. 0. 0. 0. 0. 0. 0. 0.]
 [0. 0. 0. 0. 0. 0. 0. 0. 0. 0. 0. 0. 0. 0. 0. 0. 0. 0.]
 [0. 0. 0. 0. 0. 0. 0. 0. 0. 0. 0. 0. 0. 0. 0. 0. 0. 0.]
 [0. 0. 0. 0. 0. 0. 0. 0. 0. 0. 0. 0. 0. 0. 0. 0. 0. 0.]
 [1. 1. 1. 0. 0. 0. 0. 0. 0. 0. 0. 0. 0. 0. 0. 0. 0. 0.]
 [1. 0. 1. 0. 0. 0. 0. 0. 0. 0. 0. 0. 0. 0. 0. 0. 0. 0.]
 [1. 0. 1. 1. 0. 0. 0. 0. 0. 0. 0. 0. 0. 0. 0. 0. 0. 0.]
 [1. 0. 0. 1. 0. 0. 0. 0. 0. 0. 0. 0. 0. 0. 0. 0. 0. 0.]
 [1. 0. 0. 1. 0. 0. 0. 0. 0. 0. 0. 0. 0. 0. 0. 0. 0. 0.]
 [1. 1. 1. 1. 0. 0. 0. 0. 0. 0. 0. 0. 0. 0. 0. 0. 0. 0.]]",talls_101_111,0.75,view,"[[0 0 0 0 0 0 0 0 0 0 0 0 0 0 0 0 0 0]
 [0 0 0 0 0 0 0 0 0 0 0 0 0 0 0 0 0 0]
 [0 0 0 0 0 0 0 0 0 0 0 0 0 0 0 0 0 0]
 [0 0 0 0 0 0 0 0 0 0 0 0 0 0 0 0 0 0]
 [0 0 0 0 0 0 0 0 0 0 0 0 0 0 0 0 0 0]
 [0 0 0 0 0 0 0 0 0 0 0 0 0 0 0 0 0 0]
 [0 0 0 0 0 0 0 1 1 1 0 0 0 0 0 0 0 0]
 [0 0 0 0 0 0 0 1 0 1 0 0 0 0 0 0 0 0]
 [0 0 0 0 0 0 0 1 0 1 1 0 0 0 0 0 0 0]
 [0 0 0 0 0 0 0 1 0 0 1 0 0 0 0 0 0 0]
 [0 0 0 0 0 0 0 1 0 0 1 0 0 0 0 0 0 0]
 [0 0 0 0 0 0 0 1 1 1 1 0 0 0 0 0 0 0]]",False,False,0.7-0.8,True,True,True,True,True,True,True,True,True,True,True,True,True,False,False,False,False,False,True
14,18,64274c28e158fd5aa1243678,1680296962197.0,1680296977213.0,view,"{'blocks': [{'x': 0, 'y': 0, 'height': 1, 'width': 2}, {'x': 0, 'y': 1, 'height': 2, 'width': 1}, {'x': 0, 'y': 3, 'height': 1, 'width': 2}, {'x': 0, 'y': 4, 'height': 2, 'width': 1}, {'x': 2, 'y': 0, 'height': 1, 'width': 2}, {'x': 3, 'y': 1, 'height': 2, 'width': 1}, {'x': 2, 'y': 3, 'height': 1, 'width': 2}, {'x': 2, 'y': 4, 'height': 2, 'width': 1}]}",,2,0000000000000000101000001010000011110000100100001001000011110000,talls_114_111,tall_114,wide_013,tall_111,wide_014,talls_114_111,talls_114_111,block-tower-viewing,4,188133,0.0-4.0,block_construction_build_components,build_components_build_recall_prolific_pilot_6_towers_2_rep,63e51bec3af1cc5baf0c726a,6806-1b0c1fdb-1f6a-435c-8953-e906215530ab,Prolific,trial_end,,,,,,,,1.0,,"[{'x': 0, 'y': 0, 'height': 1, 'width': 2}, {'x': 2, 'y': 0, 'height': 1, 'width': 2}, {'x': 0, 'y': 1, 'height': 2, 'width': 1}, {'x': 3, 'y': 1, 'height': 2, 'width': 1}, {'x': 0, 'y': 3, 'height': 1, 'width': 2}, {'x': 2, 'y': 3, 'height': 1, 'width': 2}, {'x': 0, 'y': 4, 'height': 2, 'width': 1}, {'x': 2, 'y': 4, 'height': 2, 'width': 1}]","[[1 0 1 0]
 [1 0 1 0]
 [1 1 1 1]
 [1 0 0 1]
 [1 0 0 1]
 [1 1 1 1]]","[[0 0 0 0 0 0 0 0 0 0]
 [0 0 0 0 0 0 0 0 0 0]
 [0 0 0 0 0 0 0 0 0 0]
 [0 0 0 0 0 0 0 0 0 0]
 [0 0 0 0 0 0 0 0 0 0]
 [0 0 0 0 0 0 0 0 0 0]
 [1 0 1 0 0 0 0 0 0 0]
 [1 0 1 0 0 0 0 0 0 0]
 [1 1 1 1 0 0 0 0 0 0]
 [1 0 0 1 0 0 0 0 0 0]
 [1 0 0 1 0 0 0 0 0 0]
 [1 1 1 1 0 0 0 0 0 0]]","((0, 0, 0, 0, 0, 0, 0, 0, 0, 0), (0, 0, 0, 0, 0, 0, 0, 0, 0, 0), (0, 0, 0, 0, 0, 0, 0, 0, 0, 0), (0, 0, 0, 0, 0, 0, 0, 0, 0, 0), (0, 0, 0, 0, 0, 0, 0, 0, 0, 0), (0, 0, 0, 0, 0, 0, 0, 0, 0, 0), (1, 0, 1, 0, 0, 0, 0, 0, 0, 0), (1, 0, 1, 0, 0, 0, 0, 0, 0, 0), (1, 1, 1, 1, 0, 0, 0, 0, 0, 0), (1, 0, 0, 1, 0, 0, 0, 0, 0, 0), (1, 0, 0, 1, 0, 0, 0, 0, 0, 0), (1, 1, 1, 1, 0, 0, 0, 0, 0, 0))","[[0. 0. 0. 0. 0. 0. 0. 0. 0. 0. 0. 0. 0. 0. 0. 0. 0. 0.]
 [0. 0. 0. 0. 0. 0. 0. 0. 0. 0. 0. 0. 0. 0. 0. 0. 0. 0.]
 [0. 0. 0. 0. 0. 0. 0. 0. 0. 0. 0. 0. 0. 0. 0. 0. 0. 0.]
 [0. 0. 0. 0. 0. 0. 0. 0. 0. 0. 0. 0. 0. 0. 0. 0. 0. 0.]
 [0. 0. 0. 0. 0. 0. 0. 0. 0. 0. 0. 0. 0. 0. 0. 0. 0. 0.]
 [0. 0. 0. 0. 0. 0. 0. 0. 0. 0. 0. 0. 0. 0. 0. 0. 0. 0.]
 [0. 0. 0. 0. 0. 0. 0. 1. 0. 1. 0. 0. 0. 0. 0. 0. 0. 0.]
 [0. 0. 0. 0. 0. 0. 0. 1. 0. 1. 0. 0. 0. 0. 0. 0. 0. 0.]
 [0. 0. 0. 0. 0. 0. 0. 1. 1. 1. 1. 0. 0. 0. 0. 0. 0. 0.]
 [0. 0. 0. 0. 0. 0. 0. 1. 0. 0. 1. 0. 0. 0. 0. 0. 0. 0.]
 [0. 0. 0. 0. 0. 0. 0. 1. 0. 0. 1. 0. 0. 0. 0. 0. 0. 0.]
 [0. 0. 0. 0. 0. 0. 0. 1. 1. 1. 1. 0. 0. 0. 0. 0. 0. 0.]]",True,"((0, 0, 0, 0, 0, 0, 0, 0, 0, 0), (0, 0, 0, 0, 0, 0, 0, 0, 0, 0), (0, 0, 0, 0, 0, 0, 0, 0, 0, 0), (0, 0, 0, 0, 0, 0, 0, 0, 0, 0), (0, 0, 0, 0, 0, 0, 0, 0, 0, 0), (0, 0, 0, 0, 0, 0, 0, 0, 0, 0), (1, 0, 1, 0, 0, 0, 0, 0, 0, 0), (1, 0, 1, 0, 0, 0, 0, 0, 0, 0), (1, 1, 1, 1, 0, 0, 0, 0, 0, 0), (1, 0, 0, 1, 0, 0, 0, 0, 0, 0), (1, 0, 0, 1, 0, 0, 0, 0, 0, 0), (1, 1, 1, 1, 0, 0, 0, 0, 0, 0))",11.0,64274e34e158fd5aa12439c8,block_construction_build_components,build_components_build_recall_prolific_pilot_6_towers_2_rep,63e51bec3af1cc5baf0c726a,Prolific,0.0,6.0,"{'blocks': [{'x': 6, 'y': 0, 'width': 2, 'height': 1}, {'x': 4, 'y': 0, 'width': 2, 'height': 1}, {'x': 4, 'y': 1, 'width': 1, 'height': 2}, {'x': 7, 'y': 1, 'width': 1, 'height': 2}, {'x': 6, 'y': 3, 'width': 2, 'height': 1}, {'x': 4, 'y': 3, 'width': 2, 'height': 1}, {'x': 4, 'y': 4, 'width': 1, 'height': 2}, {'x': 6, 'y': 4, 'width': 1, 'height': 2}], 'discreteWorld': [[True, True, True, True, True, True, True, True, True, True], [True, True, True, True, True, True, True, True, True, True], [True, True, True, True, True, True, True, True, True, True], [True, True, True, True, True, True, True, True, True, True], [False, False, False, False, False, False, True, True, True, True], [False, True, True, False, True, True, True, True, True, True], [False, True, True, False, False, False, True, True, True, True], [False, False, False, False, True, True, True, True, True, True], [True, True, True, True, True, True, True, True, True, True], [True, True, True, True, True, True, True, True, True, True], [True, True, True, True, True, True, True, True, True, True], [True, True, True, True, True, True, True, True, True, True]], 'n_block': 8}",1.0,"[{'height': 1, 'width': 2, 'x': 2, 'y': 0}, {'height': 1, 'width': 2, 'x': 0, 'y': 0}, {'height': 2, 'width': 1, 'x': 0, 'y': 1}, {'height': 2, 'width': 1, 'x': 3, 'y': 1}, {'height': 1, 'width': 2, 'x': 2, 'y': 3}, {'height': 1, 'width': 2, 'x': 0, 'y': 3}, {'height': 2, 'width': 1, 'x': 0, 'y': 4}, {'height': 2, 'width': 1, 'x': 2, 'y': 4}]",1680297502266.0,1680297380767.0,121499.0,121499.0,121442.0,recalled_tower,8.0,0.0,"{'blocks': [{'x': 6, 'y': 0, 'width': 2, 'height': 1}, {'x': 4, 'y': 0, 'width': 2, 'height': 1}, {'x': 4, 'y': 1, 'width': 1, 'height': 2}, {'x': 7, 'y': 1, 'width': 1, 'height': 2}, {'x': 6, 'y': 3, 'width': 2, 'height': 1}, {'x': 4, 'y': 3, 'width': 2, 'height': 1}, {'x': 4, 'y': 4, 'width': 1, 'height': 2}, {'x': 6, 'y': 4, 'width': 1, 'height': 2}], 'discreteWorld': [[True, True, True, True, True, True, True, True, True, True], [True, True, True, True, True, True, True, True, True, True], [True, True, True, True, True, True, True, True, True, True], [True, True, True, True, True, True, True, True, True, True], [False, False, False, False, False, False, True, True, True, True], [False, True, True, False, True, True, True, True, True, True], [False, True, True, False, False, False, True, True, True, True], [False, False, False, False, True, True, True, True, True, True], [True, True, True, True, True, True, True, True, True, True], [True, True, True, True, True, True, True, True, True, True], [True, True, True, True, True, True, True, True, True, True], [True, True, True, True, True, True, True, True, True, True]], 'n_block': 8}","[[0 0 0 0 0 0 0 0 0 0]
 [0 0 0 0 0 0 0 0 0 0]
 [0 0 0 0 0 0 0 0 0 0]
 [0 0 0 0 0 0 0 0 0 0]
 [0 0 0 0 0 0 0 0 0 0]
 [0 0 0 0 0 0 0 0 0 0]
 [1 0 1 0 0 0 0 0 0 0]
 [1 0 1 0 0 0 0 0 0 0]
 [1 1 1 1 0 0 0 0 0 0]
 [1 0 0 1 0 0 0 0 0 0]
 [1 0 0 1 0 0 0 0 0 0]
 [1 1 1 1 0 0 0 0 0 0]]","[[0. 0. 0. 0. 0. 0. 0. 0. 0. 0. 0. 0. 0. 0. 0. 0. 0. 0.]
 [0. 0. 0. 0. 0. 0. 0. 0. 0. 0. 0. 0. 0. 0. 0. 0. 0. 0.]
 [0. 0. 0. 0. 0. 0. 0. 0. 0. 0. 0. 0. 0. 0. 0. 0. 0. 0.]
 [0. 0. 0. 0. 0. 0. 0. 0. 0. 0. 0. 0. 0. 0. 0. 0. 0. 0.]
 [0. 0. 0. 0. 0. 0. 0. 0. 0. 0. 0. 0. 0. 0. 0. 0. 0. 0.]
 [0. 0. 0. 0. 0. 0. 0. 0. 0. 0. 0. 0. 0. 0. 0. 0. 0. 0.]
 [1. 0. 1. 0. 0. 0. 0. 0. 0. 0. 0. 0. 0. 0. 0. 0. 0. 0.]
 [1. 0. 1. 0. 0. 0. 0. 0. 0. 0. 0. 0. 0. 0. 0. 0. 0. 0.]
 [1. 1. 1. 1. 0. 0. 0. 0. 0. 0. 0. 0. 0. 0. 0. 0. 0. 0.]
 [1. 0. 0. 1. 0. 0. 0. 0. 0. 0. 0. 0. 0. 0. 0. 0. 0. 0.]
 [1. 0. 0. 1. 0. 0. 0. 0. 0. 0. 0. 0. 0. 0. 0. 0. 0. 0.]
 [1. 1. 1. 1. 0. 0. 0. 0. 0. 0. 0. 0. 0. 0. 0. 0. 0. 0.]]",talls_114_111,1.0,view,"[[0 0 0 0 0 0 0 0 0 0 0 0 0 0 0 0 0 0]
 [0 0 0 0 0 0 0 0 0 0 0 0 0 0 0 0 0 0]
 [0 0 0 0 0 0 0 0 0 0 0 0 0 0 0 0 0 0]
 [0 0 0 0 0 0 0 0 0 0 0 0 0 0 0 0 0 0]
 [0 0 0 0 0 0 0 0 0 0 0 0 0 0 0 0 0 0]
 [0 0 0 0 0 0 0 0 0 0 0 0 0 0 0 0 0 0]
 [0 0 0 0 0 0 0 1 0 1 0 0 0 0 0 0 0 0]
 [0 0 0 0 0 0 0 1 0 1 0 0 0 0 0 0 0 0]
 [0 0 0 0 0 0 0 1 1 1 1 0 0 0 0 0 0 0]
 [0 0 0 0 0 0 0 1 0 0 1 0 0 0 0 0 0 0]
 [0 0 0 0 0 0 0 1 0 0 1 0 0 0 0 0 0 0]
 [0 0 0 0 0 0 0 1 1 1 1 0 0 0 0 0 0 0]]",True,True,0.9-1,True,True,True,True,True,True,True,True,True,True,True,True,True,True,True,True,True,True,True
15,19,64274c2fe158fd5aa124368a,1680296942471.0,,build,"{'blocks': [{'x': 0, 'y': 0, 'height': 1, 'width': 2}, {'x': 1, 'y': 1, 'height': 2, 'width': 1}, {'x': 0, 'y': 3, 'height': 1, 'width': 2}, {'x': 1, 'y': 4, 'height': 2, 'width': 1}, {'x': 2, 'y': 0, 'height': 1, 'width': 2}, {'x': 2, 'y': 1, 'height': 2, 'width': 1}, {'x': 2, 'y': 3, 'height': 1, 'width': 2}, {'x': 3, 'y': 4, 'height': 2, 'width': 1}]}",,1,0000000000000000010100000101000011110000011000000110000011110000,talls_097_100,tall_097,wide_008,tall_100,wide_006,talls_097_100,talls_097_100,block-tower-building-undo,3,132092,0.0-3.0,block_construction_build_components,build_components_build_recall_prolific_pilot_6_towers_2_rep,606b9a381ba4c85dd950fbf7,0559-000a48f8-3af5-4489-a83b-7158b6fc5fb9,Prolific,trial_end,1680297003498.0,129654.0,"[{'x': 4, 'y': 0, 'width': 2, 'height': 1}, {'x': 6, 'y': 0, 'width': 2, 'height': 1}, {'x': 5, 'y': 1, 'width': 1, 'height': 2}, {'x': 6, 'y': 1, 'width': 1, 'height': 2}, {'x': 4, 'y': 3, 'width': 2, 'height': 1}, {'x': 6, 'y': 3, 'width': 2, 'height': 1}, {'x': 7, 'y': 4, 'width': 1, 'height': 2}, {'x': 5, 'y': 4, 'width': 1, 'height': 2}]","[[True, True, True, True, True, True, True, True, True, True], [True, True, True, True, True, True, True, True, True, True], [True, True, True, True, True, True, True, True, True, True], [True, True, True, True, True, True, True, True, True, True], [False, True, True, False, True, True, True, True, True, True], [False, False, False, False, False, False, True, True, True, True], [False, False, False, False, True, True, True, True, True, True], [False, True, True, False, False, False, True, True, True, True], [True, True, True, True, True, True, True, True, True, True], [True, True, True, True, True, True, True, True, True, True], [True, True, True, True, True, True, True, True, True, True], [True, True, True, True, True, True, True, True, True, True]]",trial_end,perfect-reconstruction-translation,61028.0,1.0,2.0,"[{'x': 0, 'y': 0, 'height': 1, 'width': 2}, {'x': 2, 'y': 0, 'height': 1, 'width': 2}, {'x': 1, 'y': 1, 'height': 2, 'width': 1}, {'x': 2, 'y': 1, 'height': 2, 'width': 1}, {'x': 0, 'y': 3, 'height': 1, 'width': 2}, {'x': 2, 'y': 3, 'height': 1, 'width': 2}, {'x': 1, 'y': 4, 'height': 2, 'width': 1}, {'x': 3, 'y': 4, 'height': 2, 'width': 1}]","[[0 1 0 1]
 [0 1 0 1]
 [1 1 1 1]
 [0 1 1 0]
 [0 1 1 0]
 [1 1 1 1]]","[[0 0 0 0 0 0 0 0 0 0]
 [0 0 0 0 0 0 0 0 0 0]
 [0 0 0 0 0 0 0 0 0 0]
 [0 0 0 0 0 0 0 0 0 0]
 [0 0 0 0 0 0 0 0 0 0]
 [0 0 0 0 0 0 0 0 0 0]
 [0 1 0 1 0 0 0 0 0 0]
 [0 1 0 1 0 0 0 0 0 0]
 [1 1 1 1 0 0 0 0 0 0]
 [0 1 1 0 0 0 0 0 0 0]
 [0 1 1 0 0 0 0 0 0 0]
 [1 1 1 1 0 0 0 0 0 0]]","((0, 0, 0, 0, 0, 0, 0, 0, 0, 0), (0, 0, 0, 0, 0, 0, 0, 0, 0, 0), (0, 0, 0, 0, 0, 0, 0, 0, 0, 0), (0, 0, 0, 0, 0, 0, 0, 0, 0, 0), (0, 0, 0, 0, 0, 0, 0, 0, 0, 0), (0, 0, 0, 0, 0, 0, 0, 0, 0, 0), (0, 1, 0, 1, 0, 0, 0, 0, 0, 0), (0, 1, 0, 1, 0, 0, 0, 0, 0, 0), (1, 1, 1, 1, 0, 0, 0, 0, 0, 0), (0, 1, 1, 0, 0, 0, 0, 0, 0, 0), (0, 1, 1, 0, 0, 0, 0, 0, 0, 0), (1, 1, 1, 1, 0, 0, 0, 0, 0, 0))","[[0. 0. 0. 0. 0. 0. 0. 0. 0. 0. 0. 0. 0. 0. 0. 0. 0. 0.]
 [0. 0. 0. 0. 0. 0. 0. 0. 0. 0. 0. 0. 0. 0. 0. 0. 0. 0.]
 [0. 0. 0. 0. 0. 0. 0. 0. 0. 0. 0. 0. 0. 0. 0. 0. 0. 0.]
 [0. 0. 0. 0. 0. 0. 0. 0. 0. 0. 0. 0. 0. 0. 0. 0. 0. 0.]
 [0. 0. 0. 0. 0. 0. 0. 0. 0. 0. 0. 0. 0. 0. 0. 0. 0. 0.]
 [0. 0. 0. 0. 0. 0. 0. 0. 0. 0. 0. 0. 0. 0. 0. 0. 0. 0.]
 [0. 0. 0. 0. 0. 0. 0. 0. 1. 0. 1. 0. 0. 0. 0. 0. 0. 0.]
 [0. 0. 0. 0. 0. 0. 0. 0. 1. 0. 1. 0. 0. 0. 0. 0. 0. 0.]
 [0. 0. 0. 0. 0. 0. 0. 1. 1. 1. 1. 0. 0. 0. 0. 0. 0. 0.]
 [0. 0. 0. 0. 0. 0. 0. 0. 1. 1. 0. 0. 0. 0. 0. 0. 0. 0.]
 [0. 0. 0. 0. 0. 0. 0. 0. 1. 1. 0. 0. 0. 0. 0. 0. 0. 0.]
 [0. 0. 0. 0. 0. 0. 0. 1. 1. 1. 1. 0. 0. 0. 0. 0. 0. 0.]]",False,,,,,,,,,,,,,,,,,,,,,,,,no_match,0.0,,,False,,,False,False,False,False,False,False,False,False,False,False,False,False,False,False,False,False,False,False,False
16,21,64274c3de158fd5aa124369d,1680296975575.0,,build,"{'blocks': [{'x': 0, 'y': 0, 'height': 2, 'width': 1}, {'x': 0, 'y': 2, 'height': 1, 'width': 2}, {'x': 0, 'y': 3, 'height': 1, 'width': 2}, {'x': 1, 'y': 4, 'height': 2, 'width': 1}, {'x': 3, 'y': 0, 'height': 2, 'width': 1}, {'x': 2, 'y': 2, 'height': 1, 'width': 2}, {'x': 2, 'y': 3, 'height': 2, 'width': 1}, {'x': 2, 'y': 5, 'height': 1, 'width': 2}]}",,1,0000000000000000011100000110000011100000111100001001000010010000,talls_102_126,tall_102,wide_024,tall_126,wide_011,talls_102_126,talls_102_126,block-tower-building-undo,3,100068,0.0-3.0,block_construction_build_components,build_components_build_recall_prolific_pilot_6_towers_2_rep,5980f157413c230001291b22,1510-718bfa55-e1e6-4fc6-884b-cf040464e4e4,Prolific,trial_end,1680297020610.0,97599.0,"[{'x': 4, 'y': 0, 'width': 1, 'height': 2}, {'x': 7, 'y': 0, 'width': 1, 'height': 2}, {'x': 4, 'y': 2, 'width': 2, 'height': 1}, {'x': 6, 'y': 2, 'width': 2, 'height': 1}, {'x': 4, 'y': 3, 'width': 2, 'height': 1}, {'x': 6, 'y': 3, 'width': 1, 'height': 2}, {'x': 5, 'y': 4, 'width': 1, 'height': 2}, {'x': 6, 'y': 5, 'width': 2, 'height': 1}]","[[True, True, True, True, True, True, True, True, True, True], [True, True, True, True, True, True, True, True, True, True], [True, True, True, True, True, True, True, True, True, True], [True, True, True, True, True, True, True, True, True, True], [False, False, False, False, True, True, True, True, True, True], [True, True, False, False, False, False, True, True, True, True], [True, True, False, False, False, False, True, True, True, True], [False, False, False, True, True, False, True, True, True, True], [True, True, True, True, True, True, True, True, True, True], [True, True, True, True, True, True, True, True, True, True], [True, True, True, True, True, True, True, True, True, True], [True, True, True, True, True, True, True, True, True, True]]",trial_end,perfect-reconstruction-translation,45035.0,1.0,0.0,"[{'x': 0, 'y': 0, 'height': 2, 'width': 1}, {'x': 3, 'y': 0, 'height': 2, 'width': 1}, {'x': 0, 'y': 2, 'height': 1, 'width': 2}, {'x': 2, 'y': 2, 'height': 1, 'width': 2}, {'x': 0, 'y': 3, 'height': 1, 'width': 2}, {'x': 2, 'y': 3, 'height': 2, 'width': 1}, {'x': 1, 'y': 4, 'height': 2, 'width': 1}, {'x': 2, 'y': 5, 'height': 1, 'width': 2}]","[[0 1 1 1]
 [0 1 1 0]
 [1 1 1 0]
 [1 1 1 1]
 [1 0 0 1]
 [1 0 0 1]]","[[0 0 0 0 0 0 0 0 0 0]
 [0 0 0 0 0 0 0 0 0 0]
 [0 0 0 0 0 0 0 0 0 0]
 [0 0 0 0 0 0 0 0 0 0]
 [0 0 0 0 0 0 0 0 0 0]
 [0 0 0 0 0 0 0 0 0 0]
 [0 1 1 1 0 0 0 0 0 0]
 [0 1 1 0 0 0 0 0 0 0]
 [1 1 1 0 0 0 0 0 0 0]
 [1 1 1 1 0 0 0 0 0 0]
 [1 0 0 1 0 0 0 0 0 0]
 [1 0 0 1 0 0 0 0 0 0]]","((0, 0, 0, 0, 0, 0, 0, 0, 0, 0), (0, 0, 0, 0, 0, 0, 0, 0, 0, 0), (0, 0, 0, 0, 0, 0, 0, 0, 0, 0), (0, 0, 0, 0, 0, 0, 0, 0, 0, 0), (0, 0, 0, 0, 0, 0, 0, 0, 0, 0), (0, 0, 0, 0, 0, 0, 0, 0, 0, 0), (0, 1, 1, 1, 0, 0, 0, 0, 0, 0), (0, 1, 1, 0, 0, 0, 0, 0, 0, 0), (1, 1, 1, 0, 0, 0, 0, 0, 0, 0), (1, 1, 1, 1, 0, 0, 0, 0, 0, 0), (1, 0, 0, 1, 0, 0, 0, 0, 0, 0), (1, 0, 0, 1, 0, 0, 0, 0, 0, 0))","[[0. 0. 0. 0. 0. 0. 0. 0. 0. 0. 0. 0. 0. 0. 0. 0. 0. 0.]
 [0. 0. 0. 0. 0. 0. 0. 0. 0. 0. 0. 0. 0. 0. 0. 0. 0. 0.]
 [0. 0. 0. 0. 0. 0. 0. 0. 0. 0. 0. 0. 0. 0. 0. 0. 0. 0.]
 [0. 0. 0. 0. 0. 0. 0. 0. 0. 0. 0. 0. 0. 0. 0. 0. 0. 0.]
 [0. 0. 0. 0. 0. 0. 0. 0. 0. 0. 0. 0. 0. 0. 0. 0. 0. 0.]
 [0. 0. 0. 0. 0. 0. 0. 0. 0. 0. 0. 0. 0. 0. 0. 0. 0. 0.]
 [0. 0. 0. 0. 0. 0. 0. 0. 1. 1. 1. 0. 0. 0. 0. 0. 0. 0.]
 [0. 0. 0. 0. 0. 0. 0. 0. 1. 1. 0. 0. 0. 0. 0. 0. 0. 0.]
 [0. 0. 0. 0. 0. 0. 0. 1. 1. 1. 0. 0. 0. 0. 0. 0. 0. 0.]
 [0. 0. 0. 0. 0. 0. 0. 1. 1. 1. 1. 0. 0. 0. 0. 0. 0. 0.]
 [0. 0. 0. 0. 0. 0. 0. 1. 0. 0. 1. 0. 0. 0. 0. 0. 0. 0.]
