,_id,trial_start_time,trial_finish_time,condition,stimulus,response,trial_num,block_str,tower_id,tower_A_tall_id,tower_A_wide_id,tower_B_tall_id,tower_B_wide_id,tower_id_tall,composite_id,trial_type,trial_index,time_elapsed,internal_node_id,experimentName,iterationName,workerID,gameID,studyLocation,datatype,timeAbsolute,timeRelative,blocks,discreteWorld,eventType,endReason,relative_time,rep,n_resets,absolute_time,total_recall_time,submitted_towers,concatenated_towers,n_towers
0,64274b0ee158fd5aa12435c5,1680296701924.0,1680296716950.0,view,"{'blocks': [{'x': 0, 'y': 0, 'height': 1, 'width': 2}, {'x': 0, 'y': 1, 'height': 2, 'width': 1}, {'x': 0, 'y': 3, 'height': 1, 'width': 2}, {'x': 0, 'y': 4, 'height': 2, 'width': 1}, {'x': 2, 'y': 0, 'height': 1, 'width': 2}, {'x': 3, 'y': 1, 'height': 2, 'width': 1}, {'x': 2, 'y': 3, 'height': 1, 'width': 2}, {'x': 2, 'y': 4, 'height': 2, 'width': 1}]}",,1,0000000000000000101000001010000011110000100100001001000011110000,talls_114_111,tall_114,wide_013,tall_111,wide_014,talls_114_111,talls_114_111,block-tower-viewing,3,59032,0.0-3.0,block_construction_build_components,build_components_build_recall_prolific_pilot_6_towers_2_rep,6105bec69dde271194d2d5d6,3078-670e6c52-abc7-4109-9187-44f49d80bdea,Prolific,trial_end,,,,,,,,,,,,,,
1,64274b4ee158fd5aa12435d2,1680296718558.0,,build,"{'blocks': [{'x': 0, 'y': 0, 'height': 1, 'width': 2}, {'x': 1, 'y': 1, 'height': 2, 'width': 1}, {'x': 0, 'y': 3, 'height': 1, 'width': 2}, {'x': 1, 'y': 4, 'height': 2, 'width': 1}, {'x': 2, 'y': 0, 'height': 1, 'width': 2}, {'x': 2, 'y': 1, 'height': 2, 'width': 1}, {'x': 2, 'y': 3, 'height': 1, 'width': 2}, {'x': 3, 'y': 4, 'height': 2, 'width': 1}]}",,2,0000000000000000010100000101000011110000011000000110000011110000,talls_097_100,tall_097,wide_008,tall_100,wide_006,talls_097_100,talls_097_100,block-tower-building-undo,4,123179,0.0-4.0,block_construction_build_components,build_components_build_recall_prolific_pilot_6_towers_2_rep,6105bec69dde271194d2d5d6,3078-670e6c52-abc7-4109-9187-44f49d80bdea,Prolific,trial_end,1680296778095.0,119945.0,"[{'x': 6, 'y': 0, 'width': 2, 'height': 1}, {'x': 4, 'y': 0, 'width': 2, 'height': 1}, {'x': 6, 'y': 1, 'width': 1, 'height': 2}, {'x': 5, 'y': 1, 'width': 1, 'height': 2}, {'x': 4, 'y': 3, 'width': 2, 'height': 1}, {'x': 6, 'y': 3, 'width': 2, 'height': 1}, {'x': 5, 'y': 4, 'width': 1, 'height': 2}, {'x': 7, 'y': 4, 'width': 1, 'height': 2}]","[[True, True, True, True, True, True, True, True, True, True], [True, True, True, True, True, True, True, True, True, True], [True, True, True, True, True, True, True, True, True, True], [True, True, True, True, True, True, True, True, True, True], [False, True, True, False, True, True, True, True, True, True], [False, False, False, False, False, False, True, True, True, True], [False, False, False, False, True, True, True, True, True, True], [False, True, True, False, False, False, True, True, True, True], [True, True, True, True, True, True, True, True, True, True], [True, True, True, True, True, True, True, True, True, True], [True, True, True, True, True, True, True, True, True, True], [True, True, True, True, True, True, True, True, True, True]]",trial_end,perfect-reconstruction-translation,59538.0,1.0,1.0,,,,,
2,64274b5ee158fd5aa12435d3,1680296782701.0,1680296797703.0,view,"{'blocks': [{'x': 1, 'y': 0, 'height': 2, 'width': 1}, {'x': 0, 'y': 2, 'height': 1, 'width': 2}, {'x': 1, 'y': 3, 'height': 2, 'width': 1}, {'x': 0, 'y': 5, 'height': 1, 'width': 2}, {'x': 3, 'y': 0, 'height': 2, 'width': 1}, {'x': 2, 'y': 2, 'height': 1, 'width': 2}, {'x': 2, 'y': 3, 'height': 1, 'width': 2}, {'x': 3, 'y': 4, 'height': 2, 'width': 1}]}",,3,0000000000000000110100000101000001110000111100000101000001010000,talls_121_101,tall_121,wide_022,tall_101,wide_018,talls_121_101,talls_121_101,block-tower-viewing,5,139785,0.0-5.0,block_construction_build_components,build_components_build_recall_prolific_pilot_6_towers_2_rep,6105bec69dde271194d2d5d6,3078-670e6c52-abc7-4109-9187-44f49d80bdea,Prolific,trial_end,,,,,,,,,,,,,,
3,64274b6fe158fd5aa12435d4,1680296799306.0,1680296814309.0,view,"{'blocks': [{'x': 0, 'y': 0, 'height': 2, 'width': 1}, {'x': 0, 'y': 2, 'height': 1, 'width': 2}, {'x': 0, 'y': 3, 'height': 1, 'width': 2}, {'x': 1, 'y': 4, 'height': 2, 'width': 1}, {'x': 3, 'y': 0, 'height': 2, 'width': 1}, {'x': 2, 'y': 2, 'height': 1, 'width': 2}, {'x': 2, 'y': 3, 'height': 2, 'width': 1}, {'x': 2, 'y': 5, 'height': 1, 'width': 2}]}",,4,0000000000000000011100000110000011100000111100001001000010010000,talls_102_126,tall_102,wide_024,tall_126,wide_011,talls_102_126,talls_102_126,block-tower-viewing,6,156396,0.0-6.0,block_construction_build_components,build_components_build_recall_prolific_pilot_6_towers_2_rep,6105bec69dde271194d2d5d6,3078-670e6c52-abc7-4109-9187-44f49d80bdea,Prolific,trial_end,,,,,,,,,,,,,,
4,64274b96e158fd5aa12435e8,1680296815916.0,,build,"{'blocks': [{'x': 0, 'y': 0, 'height': 1, 'width': 2}, {'x': 1, 'y': 1, 'height': 2, 'width': 1}, {'x': 1, 'y': 3, 'height': 2, 'width': 1}, {'x': 0, 'y': 5, 'height': 1, 'width': 2}, {'x': 2, 'y': 0, 'height': 1, 'width': 2}, {'x': 2, 'y': 1, 'height': 2, 'width': 1}, {'x': 2, 'y': 3, 'height': 1, 'width': 2}, {'x': 2, 'y': 4, 'height': 2, 'width': 1}]}",,5,0000000000000000111000000110000001110000011000000110000011110000,talls_118_114,tall_118,wide_008,tall_114,wide_019,talls_118_114,talls_118_114,block-tower-building-undo,7,195840,0.0-7.0,block_construction_build_components,build_components_build_recall_prolific_pilot_6_towers_2_rep,6105bec69dde271194d2d5d6,3078-670e6c52-abc7-4109-9187-44f49d80bdea,Prolific,trial_end,1680296850756.0,192606.0,"[{'x': 6, 'y': 0, 'width': 2, 'height': 1}, {'x': 4, 'y': 0, 'width': 2, 'height': 1}, {'x': 5, 'y': 1, 'width': 1, 'height': 2}, {'x': 6, 'y': 1, 'width': 1, 'height': 2}, {'x': 5, 'y': 3, 'width': 1, 'height': 2}, {'x': 6, 'y': 3, 'width': 2, 'height': 1}, {'x': 6, 'y': 4, 'width': 1, 'height': 2}, {'x': 4, 'y': 5, 'width': 2, 'height': 1}]","[[True, True, True, True, True, True, True, True, True, True], [True, True, True, True, True, True, True, True, True, True], [True, True, True, True, True, True, True, True, True, True], [True, True, True, True, True, True, True, True, True, True], [False, True, True, True, True, False, True, True, True, True], [False, False, False, False, False, False, True, True, True, True], [False, False, False, False, False, False, True, True, True, True], [False, True, True, False, True, True, True, True, True, True], [True, True, True, True, True, True, True, True, True, True], [True, True, True, True, True, True, True, True, True, True], [True, True, True, True, True, True, True, True, True, True], [True, True, True, True, True, True, True, True, True, True]]",trial_end,perfect-reconstruction-translation,34840.0,1.0,0.0,,,,,
5,64274ba1e158fd5aa12435f0,1680296837748.0,,build,"{'blocks': [{'x': 0, 'y': 0, 'height': 1, 'width': 2}, {'x': 1, 'y': 1, 'height': 2, 'width': 1}, {'x': 0, 'y': 3, 'height': 1, 'width': 2}, {'x': 0, 'y': 4, 'height': 2, 'width': 1}, {'x': 2, 'y': 0, 'height': 2, 'width': 1}, {'x': 2, 'y': 2, 'height': 1, 'width': 2}, {'x': 2, 'y': 3, 'height': 2, 'width': 1}, {'x': 2, 'y': 5, 'height': 1, 'width': 2}]}",,25,0000000000000000101100001010000011100000011100000110000011100000,talls_111_127,tall_111,wide_011,tall_127,wide_015,talls_111_127,talls_111_127,block-tower-building-undo,3,213366,0.0-3.0,block_construction_build_components,build_components_build_recall_prolific_pilot_6_towers_2_rep,63d419bfcbf7d56de633f50d,2793-746fc5b9-f318-4963-82a4-3ec1818eb7fc,Prolific,trial_end,1680296860784.0,210025.0,"[{'x': 6, 'y': 0, 'width': 1, 'height': 2}, {'x': 4, 'y': 0, 'width': 2, 'height': 1}, {'x': 5, 'y': 1, 'width': 1, 'height': 2}, {'x': 6, 'y': 2, 'width': 2, 'height': 1}, {'x': 6, 'y': 3, 'width': 1, 'height': 2}, {'x': 4, 'y': 3, 'width': 2, 'height': 1}, {'x': 4, 'y': 4, 'width': 1, 'height': 2}, {'x': 6, 'y': 5, 'width': 2, 'height': 1}]","[[True, True, True, True, True, True, True, True, True, True], [True, True, True, True, True, True, True, True, True, True], [True, True, True, True, True, True, True, True, True, True], [True, True, True, True, True, True, True, True, True, True], [False, True, True, False, False, False, True, True, True, True], [False, False, False, False, True, True, True, True, True, True], [False, False, False, False, False, False, True, True, True, True], [True, True, False, True, True, False, True, True, True, True], [True, True, True, True, True, True, True, True, True, True], [True, True, True, True, True, True, True, True, True, True], [True, True, True, True, True, True, True, True, True, True], [True, True, True, True, True, True, True, True, True, True]]",trial_end,perfect-reconstruction-translation,23037.0,1.0,0.0,,,,,
6,64274bb1e158fd5aa12435f9,1680296865403.0,1680296880411.0,view,"{'blocks': [{'x': 0, 'y': 0, 'height': 2, 'width': 1}, {'x': 0, 'y': 2, 'height': 1, 'width': 2}, {'x': 0, 'y': 3, 'height': 1, 'width': 2}, {'x': 1, 'y': 4, 'height': 2, 'width': 1}, {'x': 3, 'y': 0, 'height': 2, 'width': 1}, {'x': 2, 'y': 2, 'height': 1, 'width': 2}, {'x': 2, 'y': 3, 'height': 2, 'width': 1}, {'x': 2, 'y': 5, 'height': 1, 'width': 2}]}",,26,0000000000000000011100000110000011100000111100001001000010010000,talls_102_126,tall_102,wide_024,tall_126,wide_011,talls_102_126,talls_102_126,block-tower-viewing,4,229981,0.0-4.0,block_construction_build_components,build_components_build_recall_prolific_pilot_6_towers_2_rep,63d419bfcbf7d56de633f50d,2793-746fc5b9-f318-4963-82a4-3ec1818eb7fc,Prolific,trial_end,,,,,,,,,,,,,,
7,64274bc2e158fd5aa1243602,1680296882019.0,1680296897028.0,view,"{'blocks': [{'x': 0, 'y': 0, 'height': 2, 'width': 1}, {'x': 0, 'y': 2, 'height': 1, 'width': 2}, {'x': 0, 'y': 3, 'height': 2, 'width': 1}, {'x': 0, 'y': 5, 'height': 1, 'width': 2}, {'x': 2, 'y': 0, 'height': 1, 'width': 2}, {'x': 2, 'y': 1, 'height': 2, 'width': 1}, {'x': 2, 'y': 3, 'height': 2, 'width': 1}, {'x': 2, 'y': 5, 'height': 1, 'width': 2}]}",,27,0000000000000000111100001010000010100000111000001010000010110000,talls_127_125,tall_127,wide_020,tall_125,wide_025,talls_127_125,talls_127_125,block-tower-viewing,5,246600,0.0-5.0,block_construction_build_components,build_components_build_recall_prolific_pilot_6_towers_2_rep,63d419bfcbf7d56de633f50d,2793-746fc5b9-f318-4963-82a4-3ec1818eb7fc,Prolific,trial_end,,,,,,,,,,,,,,
8,64274bd8e158fd5aa124361b,1680296855361.0,,build,"{'blocks': [{'x': 0, 'y': 0, 'height': 1, 'width': 2}, {'x': 1, 'y': 1, 'height': 2, 'width': 1}, {'x': 0, 'y': 3, 'height': 1, 'width': 2}, {'x': 1, 'y': 4, 'height': 2, 'width': 1}, {'x': 2, 'y': 0, 'height': 1, 'width': 2}, {'x': 3, 'y': 1, 'height': 2, 'width': 1}, {'x': 3, 'y': 3, 'height': 2, 'width': 1}, {'x': 2, 'y': 5, 'height': 1, 'width': 2}]}",,6,0000000000000000011100000101000011010000010100000101000011110000,talls_097_118,tall_097,wide_006,tall_118,wide_010,talls_097_118,talls_097_118,block-tower-building-undo,8,261126,0.0-8.0,block_construction_build_components,build_components_build_recall_prolific_pilot_6_towers_2_rep,6105bec69dde271194d2d5d6,3078-670e6c52-abc7-4109-9187-44f49d80bdea,Prolific,trial_end,1680296916034.0,257884.0,"[{'x': 6, 'y': 0, 'width': 2, 'height': 1}, {'x': 4, 'y': 0, 'width': 2, 'height': 1}, {'x': 5, 'y': 1, 'width': 1, 'height': 2}, {'x': 7, 'y': 1, 'width': 1, 'height': 2}, {'x': 4, 'y': 3, 'width': 2, 'height': 1}, {'x': 5, 'y': 4, 'width': 1, 'height': 2}, {'x': 7, 'y': 3, 'width': 1, 'height': 2}, {'x': 6, 'y': 5, 'width': 2, 'height': 1}]","[[True, True, True, True, True, True, True, True, True, True], [True, True, True, True, True, True, True, True, True, True], [True, True, True, True, True, True, True, True, True, True], [True, True, True, True, True, True, True, True, True, True], [False, True, True, False, True, True, True, True, True, True], [False, False, False, False, False, False, True, True, True, True], [False, True, True, True, True, False, True, True, True, True], [False, False, False, False, False, False, True, True, True, True], [True, True, True, True, True, True, True, True, True, True], [True, True, True, True, True, True, True, True, True, True], [True, True, True, True, True, True, True, True, True, True], [True, True, True, True, True, True, True, True, True, True]]",trial_end,perfect-reconstruction-translation,60673.0,1.0,0.0,,,,,
9,64274be5e158fd5aa1243625,1680296898638.0,,build,"{'blocks': [{'x': 0, 'y': 0, 'height': 1, 'width': 2}, {'x': 0, 'y': 1, 'height': 2, 'width': 1}, {'x': 0, 'y': 3, 'height': 1, 'width': 2}, {'x': 0, 'y': 4, 'height': 2, 'width': 1}, {'x': 2, 'y': 0, 'height': 1, 'width': 2}, {'x': 3, 'y': 1, 'height': 2, 'width': 1}, {'x': 2, 'y': 3, 'height': 1, 'width': 2}, {'x': 2, 'y': 4, 'height': 2, 'width': 1}]}",,28,0000000000000000101000001010000011110000100100001001000011110000,talls_114_111,tall_114,wide_013,tall_111,wide_014,talls_114_111,talls_114_111,block-tower-building-undo,6,282098,0.0-6.0,block_construction_build_components,build_components_build_recall_prolific_pilot_6_towers_2_rep,63d419bfcbf7d56de633f50d,2793-746fc5b9-f318-4963-82a4-3ec1818eb7fc,Prolific,trial_end,1680296929472.0,278713.0,"[{'x': 4, 'y': 0, 'width': 2, 'height': 1}, {'x': 6, 'y': 0, 'width': 2, 'height': 1}, {'x': 4, 'y': 1, 'width': 1, 'height': 2}, {'x': 7, 'y': 1, 'width': 1, 'height': 2}, {'x': 6, 'y': 3, 'width': 2, 'height': 1}, {'x': 4, 'y': 3, 'width': 2, 'height': 1}, {'x': 4, 'y': 4, 'width': 1, 'height': 2}, {'x': 6, 'y': 4, 'width': 1, 'height': 2}]","[[True, True, True, True, True, True, True, True, True, True], [True, True, True, True, True, True, True, True, True, True], [True, True, True, True, True, True, True, True, True, True], [True, True, True, True, True, True, True, True, True, True], [False, False, False, False, False, False, True, True, True, True], [False, True, True, False, True, True, True, True, True, True], [False, True, True, False, False, False, True, True, True, True], [False, False, False, False, True, True, True, True, True, True], [True, True, True, True, True, True, True, True, True, True], [True, True, True, True, True, True, True, True, True, True], [True, True, True, True, True, True, True, True, True, True], [True, True, True, True, True, True, True, True, True, True]]",trial_end,perfect-reconstruction-translation,30835.0,1.0,1.0,,,,,
10,64274be8e158fd5aa1243626,1680296920646.0,1680296935649.0,view,"{'blocks': [{'x': 1, 'y': 0, 'height': 2, 'width': 1}, {'x': 0, 'y': 2, 'height': 1, 'width': 2}, {'x': 1, 'y': 3, 'height': 2, 'width': 1}, {'x': 0, 'y': 5, 'height': 1, 'width': 2}, {'x': 3, 'y': 0, 'height': 2, 'width': 1}, {'x': 2, 'y': 2, 'height': 1, 'width': 2}, {'x': 2, 'y': 3, 'height': 1, 'width': 2}, {'x': 3, 'y': 4, 'height': 2, 'width': 1}]}",,7,0000000000000000110100000101000001110000111100000101000001010000,talls_121_101,tall_121,wide_022,tall_101,wide_018,talls_121_101,talls_121_101,block-tower-viewing,9,277731,0.0-9.0,block_construction_build_components,build_components_build_recall_prolific_pilot_6_towers_2_rep,6105bec69dde271194d2d5d6,3078-670e6c52-abc7-4109-9187-44f49d80bdea,Prolific,trial_end,,,,,,,,,,,,,,
11,64274bf6e158fd5aa1243632,1680296934155.0,1680296949193.0,view,"{'blocks': [{'x': 0, 'y': 0, 'height': 1, 'width': 2}, {'x': 0, 'y': 1, 'height': 2, 'width': 1}, {'x': 0, 'y': 3, 'height': 1, 'width': 2}, {'x': 1, 'y': 4, 'height': 2, 'width': 1}, {'x': 2, 'y': 0, 'height': 1, 'width': 2}, {'x': 3, 'y': 1, 'height': 2, 'width': 1}, {'x': 2, 'y': 3, 'height': 1, 'width': 2}, {'x': 3, 'y': 4, 'height': 2, 'width': 1}]}",,29,0000000000000000010100000101000011110000100100001001000011110000,talls_100_097,tall_100,wide_013,tall_097,wide_006,talls_100_097,talls_100_097,block-tower-viewing,7,298780,0.0-7.0,block_construction_build_components,build_components_build_recall_prolific_pilot_6_towers_2_rep,63d419bfcbf7d56de633f50d,2793-746fc5b9-f318-4963-82a4-3ec1818eb7fc,Prolific,trial_end,,,,,,,,,,,,,,
12,64274bfee158fd5aa1243639,1680296942459.0,1680296957485.0,view,"{'blocks': [{'x': 0, 'y': 0, 'height': 1, 'width': 2}, {'x': 1, 'y': 1, 'height': 2, 'width': 1}, {'x': 0, 'y': 3, 'height': 1, 'width': 2}, {'x': 0, 'y': 4, 'height': 2, 'width': 1}, {'x': 2, 'y': 0, 'height': 2, 'width': 1}, {'x': 2, 'y': 2, 'height': 1, 'width': 2}, {'x': 2, 'y': 3, 'height': 2, 'width': 1}, {'x': 2, 'y': 5, 'height': 1, 'width': 2}]}",,1,0000000000000000101100001010000011100000011100000110000011100000,talls_111_127,tall_111,wide_011,tall_127,wide_015,talls_111_127,talls_111_127,block-tower-viewing,3,119325,0.0-3.0,block_construction_build_components,build_components_build_recall_prolific_pilot_6_towers_2_rep,5b1ba337c9d3cb00011030ca,7773-1b67ae19-c0ba-4173-916f-6905b72c894c,Prolific,trial_end,,,,,,,,,,,,,,
13,64274c09e158fd5aa124364a,1680296950834.0,,build,"{'blocks': [{'x': 0, 'y': 0, 'height': 1, 'width': 2}, {'x': 1, 'y': 1, 'height': 2, 'width': 1}, {'x': 1, 'y': 3, 'height': 2, 'width': 1}, {'x': 0, 'y': 5, 'height': 1, 'width': 2}, {'x': 3, 'y': 0, 'height': 2, 'width': 1}, {'x': 2, 'y': 2, 'height': 1, 'width': 2}, {'x': 3, 'y': 3, 'height': 2, 'width': 1}, {'x': 2, 'y': 5, 'height': 1, 'width': 2}]}",,30,0000000000000000111100000101000001010000011100000101000011010000,talls_118_121,tall_118,wide_010,tall_121,wide_022,talls_118_121,talls_118_121,block-tower-building-undo,8,318248,0.0-8.0,block_construction_build_components,build_components_build_recall_prolific_pilot_6_towers_2_rep,63d419bfcbf7d56de633f50d,2793-746fc5b9-f318-4963-82a4-3ec1818eb7fc,Prolific,trial_end,1680296965591.0,314832.0,"[{'x': 4, 'y': 0, 'width': 2, 'height': 1}, {'x': 5, 'y': 1, 'width': 1, 'height': 2}, {'x': 7, 'y': 0, 'width': 1, 'height': 2}, {'x': 6, 'y': 2, 'width': 2, 'height': 1}, {'x': 5, 'y': 3, 'width': 1, 'height': 2}, {'x': 7, 'y': 3, 'width': 1, 'height': 2}, {'x': 6, 'y': 5, 'width': 2, 'height': 1}, {'x': 4, 'y': 5, 'width': 2, 'height': 1}]","[[True, True, True, True, True, True, True, True, True, True], [True, True, True, True, True, True, True, True, True, True], [True, True, True, True, True, True, True, True, True, True], [True, True, True, True, True, True, True, True, True, True], [False, True, True, True, True, False, True, True, True, True], [False, False, False, False, False, False, True, True, True, True], [True, True, False, True, True, False, True, True, True, True], [False, False, False, False, False, False, True, True, True, True], [True, True, True, True, True, True, True, True, True, True], [True, True, True, True, True, True, True, True, True, True], [True, True, True, True, True, True, True, True, True, True], [True, True, True, True, True, True, True, True, True, True]]",trial_end,perfect-reconstruction-translation,14758.0,1.0,0.0,,,,,
14,64274c12e158fd5aa1243657,1680296937251.0,,build,"{'blocks': [{'x': 0, 'y': 0, 'height': 1, 'width': 2}, {'x': 1, 'y': 1, 'height': 2, 'width': 1}, {'x': 0, 'y': 3, 'height': 1, 'width': 2}, {'x': 1, 'y': 4, 'height': 2, 'width': 1}, {'x': 2, 'y': 0, 'height': 1, 'width': 2}, {'x': 2, 'y': 1, 'height': 2, 'width': 1}, {'x': 2, 'y': 3, 'height': 1, 'width': 2}, {'x': 3, 'y': 4, 'height': 2, 'width': 1}]}",,8,0000000000000000010100000101000011110000011000000110000011110000,talls_097_100,tall_097,wide_008,tall_100,wide_006,talls_097_100,talls_097_100,block-tower-building-undo,10,319735,0.0-10.0,block_construction_build_components,build_components_build_recall_prolific_pilot_6_towers_2_rep,6105bec69dde271194d2d5d6,3078-670e6c52-abc7-4109-9187-44f49d80bdea,Prolific,trial_end,1680296974623.0,316473.0,"[{'x': 6, 'y': 0, 'width': 2, 'height': 1}, {'x': 4, 'y': 0, 'width': 2, 'height': 1}, {'x': 5, 'y': 1, 'width': 1, 'height': 2}, {'x': 6, 'y': 1, 'width': 1, 'height': 2}, {'x': 4, 'y': 3, 'width': 2, 'height': 1}, {'x': 6, 'y': 3, 'width': 2, 'height': 1}, {'x': 5, 'y': 4, 'width': 1, 'height': 2}, {'x': 7, 'y': 4, 'width': 1, 'height': 2}]","[[True, True, True, True, True, True, True, True, True, True], [True, True, True, True, True, True, True, True, True, True], [True, True, True, True, True, True, True, True, True, True], [True, True, True, True, True, True, True, True, True, True], [False, True, True, False, True, True, True, True, True, True], [False, False, False, False, False, False, True, True, True, True], [False, False, False, False, True, True, True, True, True, True], [False, True, True, False, False, False, True, True, True, True], [True, True, True, True, True, True, True, True, True, True], [True, True, True, True, True, True, True, True, True, True], [True, True, True, True, True, True, True, True, True, True], [True, True, True, True, True, True, True, True, True, True]]",trial_end,perfect-reconstruction-translation,37373.0,2.0,0.0,,,,,
15,64274c17e158fd5aa124365f,1680296945483.0,1680296960582.0,view,"{'blocks': [{'x': 1, 'y': 0, 'height': 2, 'width': 1}, {'x': 0, 'y': 2, 'height': 1, 'width': 2}, {'x': 0, 'y': 3, 'height': 1, 'width': 2}, {'x': 1, 'y': 4, 'height': 2, 'width': 1}, {'x': 2, 'y': 0, 'height': 1, 'width': 2}, {'x': 3, 'y': 1, 'height': 2, 'width': 1}, {'x': 2, 'y': 3, 'height': 1, 'width': 2}, {'x': 2, 'y': 4, 'height': 2, 'width': 1}]}",,13,0000000000000000011000000110000011110000110100000101000001110000,talls_101_111,tall_101,wide_018,tall_111,wide_008,talls_101_111,talls_101_111,block-tower-viewing,3,171509,0.0-3.0,block_construction_build_components,build_components_build_recall_prolific_pilot_6_towers_2_rep,63e51bec3af1cc5baf0c726a,6806-1b0c1fdb-1f6a-435c-8953-e906215530ab,Prolific,trial_end,,,,,,,,,,,,,,
16,64274c23e158fd5aa124366d,1680296979274.0,1680296994280.0,view,"{'blocks': [{'x': 0, 'y': 0, 'height': 2, 'width': 1}, {'x': 0, 'y': 2, 'height': 1, 'width': 2}, {'x': 0, 'y': 3, 'height': 1, 'width': 2}, {'x': 1, 'y': 4, 'height': 2, 'width': 1}, {'x': 3, 'y': 0, 'height': 2, 'width': 1}, {'x': 2, 'y': 2, 'height': 1, 'width': 2}, {'x': 2, 'y': 3, 'height': 2, 'width': 1}, {'x': 2, 'y': 5, 'height': 1, 'width': 2}]}",,9,0000000000000000011100000110000011100000111100001001000010010000,talls_102_126,tall_102,wide_024,tall_126,wide_011,talls_102_126,talls_102_126,block-tower-viewing,11,336377,0.0-11.0,block_construction_build_components,build_components_build_recall_prolific_pilot_6_towers_2_rep,6105bec69dde271194d2d5d6,3078-670e6c52-abc7-4109-9187-44f49d80bdea,Prolific,trial_end,,,,,,,,,,,,,,
17,64274c28e158fd5aa1243678,1680296962197.0,1680296977213.0,view,"{'blocks': [{'x': 0, 'y': 0, 'height': 1, 'width': 2}, {'x': 0, 'y': 1, 'height': 2, 'width': 1}, {'x': 0, 'y': 3, 'height': 1, 'width': 2}, {'x': 0, 'y': 4, 'height': 2, 'width': 1}, {'x': 2, 'y': 0, 'height': 1, 'width': 2}, {'x': 3, 'y': 1, 'height': 2, 'width': 1}, {'x': 2, 'y': 3, 'height': 1, 'width': 2}, {'x': 2, 'y': 4, 'height': 2, 'width': 1}]}",,14,0000000000000000101000001010000011110000100100001001000011110000,talls_114_111,tall_114,wide_013,tall_111,wide_014,talls_114_111,talls_114_111,block-tower-viewing,4,188133,0.0-4.0,block_construction_build_components,build_components_build_recall_prolific_pilot_6_towers_2_rep,63e51bec3af1cc5baf0c726a,6806-1b0c1fdb-1f6a-435c-8953-e906215530ab,Prolific,trial_end,,,,,,,,,,,,,,
18,64274c2fe158fd5aa124368a,1680296942471.0,,build,"{'blocks': [{'x': 0, 'y': 0, 'height': 1, 'width': 2}, {'x': 1, 'y': 1, 'height': 2, 'width': 1}, {'x': 0, 'y': 3, 'height': 1, 'width': 2}, {'x': 1, 'y': 4, 'height': 2, 'width': 1}, {'x': 2, 'y': 0, 'height': 1, 'width': 2}, {'x': 2, 'y': 1, 'height': 2, 'width': 1}, {'x': 2, 'y': 3, 'height': 1, 'width': 2}, {'x': 3, 'y': 4, 'height': 2, 'width': 1}]}",,1,0000000000000000010100000101000011110000011000000110000011110000,talls_097_100,tall_097,wide_008,tall_100,wide_006,talls_097_100,talls_097_100,block-tower-building-undo,3,132092,0.0-3.0,block_construction_build_components,build_components_build_recall_prolific_pilot_6_towers_2_rep,606b9a381ba4c85dd950fbf7,0559-000a48f8-3af5-4489-a83b-7158b6fc5fb9,Prolific,trial_end,1680297003498.0,129654.0,"[{'x': 4, 'y': 0, 'width': 2, 'height': 1}, {'x': 6, 'y': 0, 'width': 2, 'height': 1}, {'x': 5, 'y': 1, 'width': 1, 'height': 2}, {'x': 6, 'y': 1, 'width': 1, 'height': 2}, {'x': 4, 'y': 3, 'width': 2, 'height': 1}, {'x': 6, 'y': 3, 'width': 2, 'height': 1}, {'x': 7, 'y': 4, 'width': 1, 'height': 2}, {'x': 5, 'y': 4, 'width': 1, 'height': 2}]","[[True, True, True, True, True, True, True, True, True, True], [True, True, True, True, True, True, True, True, True, True], [True, True, True, True, True, True, True, True, True, True], [True, True, True, True, True, True, True, True, True, True], [False, True, True, False, True, True, True, True, True, True], [False, False, False, False, False, False, True, True, True, True], [False, False, False, False, True, True, True, True, True, True], [False, True, True, False, False, False, True, True, True, True], [True, True, True, True, True, True, True, True, True, True], [True, True, True, True, True, True, True, True, True, True], [True, True, True, True, True, True, True, True, True, True], [True, True, True, True, True, True, True, True, True, True]]",trial_end,perfect-reconstruction-translation,61028.0,1.0,2.0,,,,,
19,64274c35e158fd5aa1243690,1680296970313.0,,build,"{'blocks': [{'x': 0, 'y': 0, 'height': 1, 'width': 2}, {'x': 1, 'y': 1, 'height': 2, 'width': 1}, {'x': 0, 'y': 3, 'height': 1, 'width': 2}, {'x': 0, 'y': 4, 'height': 2, 'width': 1}, {'x': 2, 'y': 0, 'height': 2, 'width': 1}, {'x': 2, 'y': 2, 'height': 1, 'width': 2}, {'x': 2, 'y': 3, 'height': 2, 'width': 1}, {'x': 2, 'y': 5, 'height': 1, 'width': 2}]}",,31,0000000000000000101100001010000011100000011100000110000011100000,talls_111_127,tall_111,wide_011,tall_127,wide_015,talls_111_127,talls_111_127,block-tower-building-undo,9,362097,0.0-9.0,block_construction_build_components,build_components_build_recall_prolific_pilot_6_towers_2_rep,63d419bfcbf7d56de633f50d,2793-746fc5b9-f318-4963-82a4-3ec1818eb7fc,Prolific,trial_end,1680297009411.0,358652.0,"[{'x': 4, 'y': 0, 'width': 2, 'height': 1}, {'x': 6, 'y': 0, 'width': 1, 'height': 2}, {'x': 5, 'y': 1, 'width': 1, 'height': 2}, {'x': 4, 'y': 3, 'width': 2, 'height': 1}, {'x': 6, 'y': 2, 'width': 2, 'height': 1}, {'x': 6, 'y': 3, 'width': 1, 'height': 2}, {'x': 6, 'y': 5, 'width': 2, 'height': 1}, {'x': 4, 'y': 4, 'width': 1, 'height': 2}]","[[True, True, True, True, True, True, True, True, True, True], [True, True, True, True, True, True, True, True, True, True], [True, True, True, True, True, True, True, True, True, True], [True, True, True, True, True, True, True, True, True, True], [False, True, True, False, False, False, True, True, True, True], [False, False, False, False, True, True, True, True, True, True], [False, False, False, False, False, False, True, True, True, True], [True, True, False, True, True, False, True, True, True, True], [True, True, True, True, True, True, True, True, True, True], [True, True, True, True, True, True, True, True, True, True], [True, True, True, True, True, True, True, True, True, True], [True, True, True, True, True, True, True, True, True, True]]",trial_end,perfect-reconstruction-translation,39098.0,2.0,1.0,,,,,
20,64274c3de158fd5aa124369d,1680296975575.0,,build,"{'blocks': [{'x': 0, 'y': 0, 'height': 2, 'width': 1}, {'x': 0, 'y': 2, 'height': 1, 'width': 2}, {'x': 0, 'y': 3, 'height': 1, 'width': 2}, {'x': 1, 'y': 4, 'height': 2, 'width': 1}, {'x': 3, 'y': 0, 'height': 2, 'width': 1}, {'x': 2, 'y': 2, 'height': 1, 'width': 2}, {'x': 2, 'y': 3, 'height': 2, 'width': 1}, {'x': 2, 'y': 5, 'height': 1, 'width': 2}]}",,1,0000000000000000011100000110000011100000111100001001000010010000,talls_102_126,tall_102,wide_024,tall_126,wide_011,talls_102_126,talls_102_126,block-tower-building-undo,3,100068,0.0-3.0,block_construction_build_components,build_components_build_recall_prolific_pilot_6_towers_2_rep,5980f157413c230001291b22,1510-718bfa55-e1e6-4fc6-884b-cf040464e4e4,Prolific,trial_end,1680297020610.0,97599.0,"[{'x': 4, 'y': 0, 'width': 1, 'height': 2}, {'x': 7, 'y': 0, 'width': 1, 'height': 2}, {'x': 4, 'y': 2, 'width': 2, 'height': 1}, {'x': 6, 'y': 2, 'width': 2, 'height': 1}, {'x': 4, 'y': 3, 'width': 2, 'height': 1}, {'x': 6, 'y': 3, 'width': 1, 'height': 2}, {'x': 5, 'y': 4, 'width': 1, 'height': 2}, {'x': 6, 'y': 5, 'width': 2, 'height': 1}]","[[True, True, True, True, True, True, True, True, True, True], [True, True, True, True, True, True, True, True, True, True], [True, True, True, True, True, True, True, True, True, True], [True, True, True, True, True, True, True, True, True, True], [False, False, False, False, True, True, True, True, True, True], [True, True, False, False, False, False, True, True, True, True], [True, True, False, False, False, False, True, True, True, True], [False, False, False, True, True, False, True, True, True, True], [True, True, True, True, True, True, True, True, True, True], [True, True, True, True, True, True, True, True, True, True], [True, True, True, True, True, True, True, True, True, True], [True, True, True, True, True, True, True, True, True, True]]",trial_end,perfect-reconstruction-translation,45035.0,1.0,0.0,,,,,
21,64274c45e158fd5aa12436ab,1680296995904.0,,build,"{'blocks': [{'x': 0, 'y': 0, 'height': 1, 'width': 2}, {'x': 1, 'y': 1, 'height': 2, 'width': 1}, {'x': 1, 'y': 3, 'height': 2, 'width': 1}, {'x': 0, 'y': 5, 'height': 1, 'width': 2}, {'x': 2, 'y': 0, 'height': 1, 'width': 2}, {'x': 2, 'y': 1, 'height': 2, 'width': 1}, {'x': 2, 'y': 3, 'height': 1, 'width': 2}, {'x': 2, 'y': 4, 'height': 2, 'width': 1}]}",,10,0000000000000000111000000110000001110000011000000110000011110000,talls_118_114,tall_118,wide_008,tall_114,wide_019,talls_118_114,talls_118_114,block-tower-building-undo,12,370055,0.0-12.0,block_construction_build_components,build_components_build_recall_prolific_pilot_6_towers_2_rep,6105bec69dde271194d2d5d6,3078-670e6c52-abc7-4109-9187-44f49d80bdea,Prolific,trial_end,1680297024960.0,366810.0,"[{'x': 4, 'y': 0, 'width': 2, 'height': 1}, {'x': 6, 'y': 0, 'width': 2, 'height': 1}, {'x': 6, 'y': 1, 'width': 1, 'height': 2}, {'x': 5, 'y': 1, 'width': 1, 'height': 2}, {'x': 6, 'y': 3, 'width': 2, 'height': 1}, {'x': 6, 'y': 4, 'width': 1, 'height': 2}, {'x': 5, 'y': 3, 'width': 1, 'height': 2}, {'x': 4, 'y': 5, 'width': 2, 'height': 1}]","[[True, True, True, True, True, True, True, True, True, True], [True, True, True, True, True, True, True, True, True, True], [True, True, True, True, True, True, True, True, True, True], [True, True, True, True, True, True, True, True, True, True], [False, True, True, True, True, False, True, True, True, True], [False, False, False, False, False, False, True, True, True, True], [False, False, False, False, False, False, True, True, True, True], [False, True, True, False, True, True, True, True, True, True], [True, True, True, True, True, True, True, True, True, True], [True, True, True, True, True, True, True, True, True, True], [True, True, True, True, True, True, True, True, True, True], [True, True, True, True, True, True, True, True, True, True]]",trial_end,perfect-reconstruction-translation,29056.0,2.0,0.0,,,,,
22,64274c46e158fd5aa12436ad,1680297014185.0,1680297029261.0,view,"{'blocks': [{'x': 0, 'y': 0, 'height': 1, 'width': 2}, {'x': 0, 'y': 1, 'height': 2, 'width': 1}, {'x': 0, 'y': 3, 'height': 1, 'width': 2}, {'x': 1, 'y': 4, 'height': 2, 'width': 1}, {'x': 2, 'y': 0, 'height': 1, 'width': 2}, {'x': 3, 'y': 1, 'height': 2, 'width': 1}, {'x': 2, 'y': 3, 'height': 1, 'width': 2}, {'x': 3, 'y': 4, 'height': 2, 'width': 1}]}",,32,0000000000000000010100000101000011110000100100001001000011110000,talls_100_097,tall_100,wide_013,tall_097,wide_006,talls_100_097,talls_100_097,block-tower-viewing,10,378876,0.0-10.0,block_construction_build_components,build_components_build_recall_prolific_pilot_6_towers_2_rep,63d419bfcbf7d56de633f50d,2793-746fc5b9-f318-4963-82a4-3ec1818eb7fc,Prolific,trial_end,,,,,,,,,,,,,,
23,64274c4de158fd5aa12436b6,1680297025224.0,1680297040234.0,view,"{'blocks': [{'x': 0, 'y': 0, 'height': 1, 'width': 2}, {'x': 1, 'y': 1, 'height': 2, 'width': 1}, {'x': 1, 'y': 3, 'height': 2, 'width': 1}, {'x': 0, 'y': 5, 'height': 1, 'width': 2}, {'x': 3, 'y': 0, 'height': 2, 'width': 1}, {'x': 2, 'y': 2, 'height': 1, 'width': 2}, {'x': 3, 'y': 3, 'height': 2, 'width': 1}, {'x': 2, 'y': 5, 'height': 1, 'width': 2}]}",,2,0000000000000000111100000101000001010000011100000101000011010000,talls_118_121,tall_118,wide_010,tall_121,wide_022,talls_118_121,talls_118_121,block-tower-viewing,4,116685,0.0-4.0,block_construction_build_components,build_components_build_recall_prolific_pilot_6_towers_2_rep,5980f157413c230001291b22,1510-718bfa55-e1e6-4fc6-884b-cf040464e4e4,Prolific,trial_end,,,,,,,,,,,,,,
24,64274c52e158fd5aa12436bc,1680297008235.0,,build,"{'blocks': [{'x': 0, 'y': 0, 'height': 1, 'width': 2}, {'x': 1, 'y': 1, 'height': 2, 'width': 1}, {'x': 0, 'y': 3, 'height': 1, 'width': 2}, {'x': 1, 'y': 4, 'height': 2, 'width': 1}, {'x': 2, 'y': 0, 'height': 1, 'width': 2}, {'x': 3, 'y': 1, 'height': 2, 'width': 1}, {'x': 3, 'y': 3, 'height': 2, 'width': 1}, {'x': 2, 'y': 5, 'height': 1, 'width': 2}]}",,2,0000000000000000011100000101000011010000010100000101000011110000,talls_097_118,tall_097,wide_006,tall_118,wide_010,talls_097_118,talls_097_118,block-tower-building-undo,4,166884,0.0-4.0,block_construction_build_components,build_components_build_recall_prolific_pilot_6_towers_2_rep,606b9a381ba4c85dd950fbf7,0559-000a48f8-3af5-4489-a83b-7158b6fc5fb9,Prolific,trial_end,1680297038143.0,164299.0,"[{'x': 4, 'y': 0, 'width': 2, 'height': 1}, {'x': 6, 'y': 0, 'width': 2, 'height': 1}, {'x': 5, 'y': 1, 'width': 1, 'height': 2}, {'x': 7, 'y': 1, 'width': 1, 'height': 2}, {'x': 4, 'y': 3, 'width': 2, 'height': 1}, {'x': 5, 'y': 4, 'width': 1, 'height': 2}, {'x': 7, 'y': 3, 'width': 1, 'height': 2}, {'x': 6, 'y': 5, 'width': 2, 'height': 1}]","[[True, True, True, True, True, True, True, True, True, True], [True, True, True, True, True, True, True, True, True, True], [True, True, True, True, True, True, True, True, True, True], [True, True, True, True, True, True, True, True, True, True], [False, True, True, False, True, True, True, True, True, True], [False, False, False, False, False, False, True, True, True, True], [False, True, True, True, True, False, True, True, True, True], [False, False, False, False, False, False, True, True, True, True], [True, True, True, True, True, True, True, True, True, True], [True, True, True, True, True, True, True, True, True, True], [True, True, True, True, True, True, True, True, True, True], [True, True, True, True, True, True, True, True, True, True]]",trial_end,perfect-reconstruction-translation,29910.0,1.0,0.0,,,,,
25,64274c55e158fd5aa12436c0,1680297029598.0,1680297044613.0,view,"{'blocks': [{'x': 0, 'y': 0, 'height': 1, 'width': 2}, {'x': 0, 'y': 1, 'height': 2, 'width': 1}, {'x': 0, 'y': 3, 'height': 1, 'width': 2}, {'x': 0, 'y': 4, 'height': 2, 'width': 1}, {'x': 2, 'y': 0, 'height': 1, 'width': 2}, {'x': 3, 'y': 1, 'height': 2, 'width': 1}, {'x': 2, 'y': 3, 'height': 1, 'width': 2}, {'x': 2, 'y': 4, 'height': 2, 'width': 1}]}",,11,0000000000000000101000001010000011110000100100001001000011110000,talls_114_111,tall_114,wide_013,tall_111,wide_014,talls_114_111,talls_114_111,block-tower-viewing,13,386717,0.0-13.0,block_construction_build_components,build_components_build_recall_prolific_pilot_6_towers_2_rep,6105bec69dde271194d2d5d6,3078-670e6c52-abc7-4109-9187-44f49d80bdea,Prolific,trial_end,,,,,,,,,,,,,,
26,64274c57e158fd5aa12436c3,1680297030956.0,1680297046013.0,view,"{'blocks': [{'x': 0, 'y': 0, 'height': 2, 'width': 1}, {'x': 0, 'y': 2, 'height': 1, 'width': 2}, {'x': 0, 'y': 3, 'height': 1, 'width': 2}, {'x': 1, 'y': 4, 'height': 2, 'width': 1}, {'x': 3, 'y': 0, 'height': 2, 'width': 1}, {'x': 2, 'y': 2, 'height': 1, 'width': 2}, {'x': 2, 'y': 3, 'height': 2, 'width': 1}, {'x': 2, 'y': 5, 'height': 1, 'width': 2}]}",,33,0000000000000000011100000110000011100000111100001001000010010000,talls_102_126,tall_102,wide_024,tall_126,wide_011,talls_102_126,talls_102_126,block-tower-viewing,11,395628,0.0-11.0,block_construction_build_components,build_components_build_recall_prolific_pilot_6_towers_2_rep,63d419bfcbf7d56de633f50d,2793-746fc5b9-f318-4963-82a4-3ec1818eb7fc,Prolific,trial_end,,,,,,,,,,,,,,
27,64274c5ee158fd5aa12436d0,1680297041839.0,1680297056851.0,view,"{'blocks': [{'x': 0, 'y': 0, 'height': 2, 'width': 1}, {'x': 0, 'y': 2, 'height': 1, 'width': 2}, {'x': 0, 'y': 3, 'height': 1, 'width': 2}, {'x': 0, 'y': 4, 'height': 2, 'width': 1}, {'x': 2, 'y': 0, 'height': 1, 'width': 2}, {'x': 2, 'y': 1, 'height': 2, 'width': 1}, {'x': 2, 'y': 3, 'height': 1, 'width': 2}, {'x': 3, 'y': 4, 'height': 2, 'width': 1}]}",,3,0000000000000000100100001001000011110000111000001010000010110000,talls_116_100,tall_116,wide_020,tall_100,wide_013,talls_116_100,talls_116_100,block-tower-viewing,5,133302,0.0-5.0,block_construction_build_components,build_components_build_recall_prolific_pilot_6_towers_2_rep,5980f157413c230001291b22,1510-718bfa55-e1e6-4fc6-884b-cf040464e4e4,Prolific,trial_end,,,,,,,,,,,,,,
28,64274c63e158fd5aa12436dc,1680297043124.0,1680297058140.0,view,"{'blocks': [{'x': 1, 'y': 0, 'height': 2, 'width': 1}, {'x': 0, 'y': 2, 'height': 1, 'width': 2}, {'x': 1, 'y': 3, 'height': 2, 'width': 1}, {'x': 0, 'y': 5, 'height': 1, 'width': 2}, {'x': 3, 'y': 0, 'height': 2, 'width': 1}, {'x': 2, 'y': 2, 'height': 1, 'width': 2}, {'x': 2, 'y': 3, 'height': 1, 'width': 2}, {'x': 3, 'y': 4, 'height': 2, 'width': 1}]}",,3,0000000000000000110100000101000001110000111100000101000001010000,talls_121_101,tall_121,wide_022,tall_101,wide_018,talls_121_101,talls_121_101,block-tower-viewing,5,183658,0.0-5.0,block_construction_build_components,build_components_build_recall_prolific_pilot_6_towers_2_rep,606b9a381ba4c85dd950fbf7,0559-000a48f8-3af5-4489-a83b-7158b6fc5fb9,Prolific,trial_end,,,,,,,,,,,,,,
29,64274c67e158fd5aa12436e4,1680296959088.0,,build,"{'blocks': [{'x': 0, 'y': 0, 'height': 1, 'width': 2}, {'x': 1, 'y': 1, 'height': 2, 'width': 1}, {'x': 0, 'y': 3, 'height': 1, 'width': 2}, {'x': 1, 'y': 4, 'height': 2, 'width': 1}, {'x': 2, 'y': 0, 'height': 1, 'width': 2}, {'x': 2, 'y': 1, 'height': 2, 'width': 1}, {'x': 2, 'y': 3, 'height': 1, 'width': 2}, {'x': 3, 'y': 4, 'height': 2, 'width': 1}]}",,2,0000000000000000010100000101000011110000011000000110000011110000,talls_097_100,tall_097,wide_008,tall_100,wide_006,talls_097_100,talls_097_100,block-tower-building-undo,4,224223,0.0-4.0,block_construction_build_components,build_components_build_recall_prolific_pilot_6_towers_2_rep,5b1ba337c9d3cb00011030ca,7773-1b67ae19-c0ba-4173-916f-6905b72c894c,Prolific,trial_end,1680297059375.0,220952.0,"[{'x': 4, 'y': 0, 'width': 2, 'height': 1}, {'x': 6, 'y': 0, 'width': 2, 'height': 1}, {'x': 5, 'y': 1, 'width': 1, 'height': 2}, {'x': 6, 'y': 1, 'width': 1, 'height': 2}, {'x': 6, 'y': 3, 'width': 2, 'height': 1}, {'x': 7, 'y': 4, 'width': 1, 'height': 2}, {'x': 4, 'y': 3, 'width': 2, 'height': 1}, {'x': 5, 'y': 4, 'width': 1, 'height': 2}]","[[True, True, True, True, True, True, True, True, True, True], [True, True, True, True, True, True, True, True, True, True], [True, True, True, True, True, True, True, True, True, True], [True, True, True, True, True, True, True, True, True, True], [False, True, True, False, True, True, True, True, True, True], [False, False, False, False, False, False, True, True, True, True], [False, False, False, False, True, True, True, True, True, True], [False, True, True, False, False, False, True, True, True, True], [True, True, True, True, True, True, True, True, True, True], [True, True, True, True, True, True, True, True, True, True], [True, True, True, True, True, True, True, True, True, True], [True, True, True, True, True, True, True, True, True, True]]",trial_end,perfect-reconstruction-translation,100289.0,1.0,0.0,,,,,
30,64274c67e158fd5aa12436e5,1680297047711.0,,build,"{'blocks': [{'x': 0, 'y': 0, 'height': 1, 'width': 2}, {'x': 0, 'y': 1, 'height': 2, 'width': 1}, {'x': 0, 'y': 3, 'height': 1, 'width': 2}, {'x': 0, 'y': 4, 'height': 2, 'width': 1}, {'x': 2, 'y': 0, 'height': 1, 'width': 2}, {'x': 3, 'y': 1, 'height': 2, 'width': 1}, {'x': 2, 'y': 3, 'height': 1, 'width': 2}, {'x': 2, 'y': 4, 'height': 2, 'width': 1}]}",,34,0000000000000000101000001010000011110000100100001001000011110000,talls_114_111,tall_114,wide_013,tall_111,wide_014,talls_114_111,talls_114_111,block-tower-building-undo,12,411767,0.0-12.0,block_construction_build_components,build_components_build_recall_prolific_pilot_6_towers_2_rep,63d419bfcbf7d56de633f50d,2793-746fc5b9-f318-4963-82a4-3ec1818eb7fc,Prolific,trial_end,1680297059047.0,408288.0,"[{'x': 4, 'y': 0, 'width': 2, 'height': 1}, {'x': 6, 'y': 0, 'width': 2, 'height': 1}, {'x': 4, 'y': 1, 'width': 1, 'height': 2}, {'x': 7, 'y': 1, 'width': 1, 'height': 2}, {'x': 4, 'y': 3, 'width': 2, 'height': 1}, {'x': 6, 'y': 3, 'width': 2, 'height': 1}, {'x': 4, 'y': 4, 'width': 1, 'height': 2}, {'x': 6, 'y': 4, 'width': 1, 'height': 2}]","[[True, True, True, True, True, True, True, True, True, True], [True, True, True, True, True, True, True, True, True, True], [True, True, True, True, True, True, True, True, True, True], [True, True, True, True, True, True, True, True, True, True], [False, False, False, False, False, False, True, True, True, True], [False, True, True, False, True, True, True, True, True, True], [False, True, True, False, False, False, True, True, True, True], [False, False, False, False, True, True, True, True, True, True], [True, True, True, True, True, True, True, True, True, True], [True, True, True, True, True, True, True, True, True, True], [True, True, True, True, True, True, True, True, True, True], [True, True, True, True, True, True, True, True, True, True]]",trial_end,perfect-reconstruction-translation,11337.0,2.0,0.0,,,,,
31,64274c74e158fd5aa12436ff,1680297059788.0,1680297074859.0,view,"{'blocks': [{'x': 1, 'y': 0, 'height': 2, 'width': 1}, {'x': 0, 'y': 2, 'height': 1, 'width': 2}, {'x': 0, 'y': 3, 'height': 1, 'width': 2}, {'x': 1, 'y': 4, 'height': 2, 'width': 1}, {'x': 2, 'y': 0, 'height': 1, 'width': 2}, {'x': 3, 'y': 1, 'height': 2, 'width': 1}, {'x': 2, 'y': 3, 'height': 1, 'width': 2}, {'x': 2, 'y': 4, 'height': 2, 'width': 1}]}",,4,0000000000000000011000000110000011110000110100000101000001110000,talls_101_111,tall_101,wide_018,tall_111,wide_008,talls_101_111,talls_101_111,block-tower-viewing,6,200388,0.0-6.0,block_construction_build_components,build_components_build_recall_prolific_pilot_6_towers_2_rep,606b9a381ba4c85dd950fbf7,0559-000a48f8-3af5-4489-a83b-7158b6fc5fb9,Prolific,trial_end,,,,,,,,,,,,,,
32,64274c75e158fd5aa1243703,1680297058457.0,,build,"{'blocks': [{'x': 0, 'y': 0, 'height': 1, 'width': 2}, {'x': 1, 'y': 1, 'height': 2, 'width': 1}, {'x': 0, 'y': 3, 'height': 1, 'width': 2}, {'x': 0, 'y': 4, 'height': 2, 'width': 1}, {'x': 2, 'y': 0, 'height': 2, 'width': 1}, {'x': 2, 'y': 2, 'height': 1, 'width': 2}, {'x': 2, 'y': 3, 'height': 2, 'width': 1}, {'x': 2, 'y': 5, 'height': 1, 'width': 2}]}",,4,0000000000000000101100001010000011100000011100000110000011100000,talls_111_127,tall_111,wide_011,tall_127,wide_015,talls_111_127,talls_111_127,block-tower-building-undo,6,156882,0.0-6.0,block_construction_build_components,build_components_build_recall_prolific_pilot_6_towers_2_rep,5980f157413c230001291b22,1510-718bfa55-e1e6-4fc6-884b-cf040464e4e4,Prolific,trial_end,1680297077431.0,154420.0,"[{'x': 3, 'y': 0, 'width': 2, 'height': 1}, {'x': 5, 'y': 0, 'width': 1, 'height': 2}, {'x': 4, 'y': 1, 'width': 1, 'height': 2}, {'x': 5, 'y': 2, 'width': 2, 'height': 1}, {'x': 3, 'y': 3, 'width': 2, 'height': 1}, {'x': 3, 'y': 4, 'width': 1, 'height': 2}, {'x': 5, 'y': 3, 'width': 1, 'height': 2}, {'x': 5, 'y': 5, 'width': 2, 'height': 1}]","[[True, True, True, True, True, True, True, True, True, True], [True, True, True, True, True, True, True, True, True, True], [True, True, True, True, True, True, True, True, True, True], [False, True, True, False, False, False, True, True, True, True], [False, False, False, False, True, True, True, True, True, True], [False, False, False, False, False, False, True, True, True, True], [True, True, False, True, True, False, True, True, True, True], [True, True, True, True, True, True, True, True, True, True], [True, True, True, True, True, True, True, True, True, True], [True, True, True, True, True, True, True, True, True, True], [True, True, True, True, True, True, True, True, True, True], [True, True, True, True, True, True, True, True, True, True]]",trial_end,perfect-reconstruction-translation,18974.0,1.0,0.0,,,,,
33,64274c77e158fd5aa1243707,1680297064000.0,1680297079014.0,view,"{'blocks': [{'x': 0, 'y': 0, 'height': 2, 'width': 1}, {'x': 0, 'y': 2, 'height': 1, 'width': 2}, {'x': 0, 'y': 3, 'height': 1, 'width': 2}, {'x': 1, 'y': 4, 'height': 2, 'width': 1}, {'x': 3, 'y': 0, 'height': 2, 'width': 1}, {'x': 2, 'y': 2, 'height': 1, 'width': 2}, {'x': 2, 'y': 3, 'height': 2, 'width': 1}, {'x': 2, 'y': 5, 'height': 1, 'width': 2}]}",,3,0000000000000000011100000110000011100000111100001001000010010000,talls_102_126,tall_102,wide_024,tall_126,wide_011,talls_102_126,talls_102_126,block-tower-viewing,5,240856,0.0-5.0,block_construction_build_components,build_components_build_recall_prolific_pilot_6_towers_2_rep,5b1ba337c9d3cb00011030ca,7773-1b67ae19-c0ba-4173-916f-6905b72c894c,Prolific,trial_end,,,,,,,,,,,,,,
34,64274c78e158fd5aa1243708,1680297063884.0,,build,"{'blocks': [{'x': 0, 'y': 0, 'height': 1, 'width': 2}, {'x': 1, 'y': 1, 'height': 2, 'width': 1}, {'x': 1, 'y': 3, 'height': 2, 'width': 1}, {'x': 0, 'y': 5, 'height': 1, 'width': 2}, {'x': 3, 'y': 0, 'height': 2, 'width': 1}, {'x': 2, 'y': 2, 'height': 1, 'width': 2}, {'x': 3, 'y': 3, 'height': 2, 'width': 1}, {'x': 2, 'y': 5, 'height': 1, 'width': 2}]}",,35,0000000000000000111100000101000001010000011100000101000011010000,talls_118_121,tall_118,wide_010,tall_121,wide_022,talls_118_121,talls_118_121,block-tower-building-undo,13,428842,0.0-13.0,block_construction_build_components,build_components_build_recall_prolific_pilot_6_towers_2_rep,63d419bfcbf7d56de633f50d,2793-746fc5b9-f318-4963-82a4-3ec1818eb7fc,Prolific,trial_end,1680297076127.0,425368.0,"[{'x': 3, 'y': 0, 'width': 2, 'height': 1}, {'x': 6, 'y': 0, 'width': 1, 'height': 2}, {'x': 5, 'y': 2, 'width': 2, 'height': 1}, {'x': 4, 'y': 1, 'width': 1, 'height': 2}, {'x': 4, 'y': 3, 'width': 1, 'height': 2}, {'x': 6, 'y': 3, 'width': 1, 'height': 2}, {'x': 5, 'y': 5, 'width': 2, 'height': 1}, {'x': 3, 'y': 5, 'width': 2, 'height': 1}]","[[True, True, True, True, True, True, True, True, True, True], [True, True, True, True, True, True, True, True, True, True], [True, True, True, True, True, True, True, True, True, True], [False, True, True, True, True, False, True, True, True, True], [False, False, False, False, False, False, True, True, True, True], [True, True, False, True, True, False, True, True, True, True], [False, False, False, False, False, False, True, True, True, True], [True, True, True, True, True, True, True, True, True, True], [True, True, True, True, True, True, True, True, True, True], [True, True, True, True, True, True, True, True, True, True], [True, True, True, True, True, True, True, True, True, True], [True, True, True, True, True, True, True, True, True, True]]",trial_end,perfect-reconstruction-translation,12243.0,2.0,0.0,,,,,
35,64274c81e158fd5aa1243718,1680297046244.0,,build,"{'blocks': [{'x': 0, 'y': 0, 'height': 1, 'width': 2}, {'x': 1, 'y': 1, 'height': 2, 'width': 1}, {'x': 0, 'y': 3, 'height': 1, 'width': 2}, {'x': 1, 'y': 4, 'height': 2, 'width': 1}, {'x': 2, 'y': 0, 'height': 1, 'width': 2}, {'x': 3, 'y': 1, 'height': 2, 'width': 1}, {'x': 3, 'y': 3, 'height': 2, 'width': 1}, {'x': 2, 'y': 5, 'height': 1, 'width': 2}]}",,12,0000000000000000011100000101000011010000010100000101000011110000,talls_097_118,tall_097,wide_006,tall_118,wide_010,talls_097_118,talls_097_118,block-tower-building-undo,14,430304,0.0-14.0,block_construction_build_components,build_components_build_recall_prolific_pilot_6_towers_2_rep,6105bec69dde271194d2d5d6,3078-670e6c52-abc7-4109-9187-44f49d80bdea,Prolific,trial_end,1680297085203.0,427053.0,"[{'x': 6, 'y': 0, 'width': 2, 'height': 1}, {'x': 4, 'y': 0, 'width': 2, 'height': 1}, {'x': 5, 'y': 1, 'width': 1, 'height': 2}, {'x': 7, 'y': 1, 'width': 1, 'height': 2}, {'x': 4, 'y': 3, 'width': 2, 'height': 1}, {'x': 5, 'y': 4, 'width': 1, 'height': 2}, {'x': 7, 'y': 3, 'width': 1, 'height': 2}, {'x': 6, 'y': 5, 'width': 2, 'height': 1}]","[[True, True, True, True, True, True, True, True, True, True], [True, True, True, True, True, True, True, True, True, True], [True, True, True, True, True, True, True, True, True, True], [True, True, True, True, True, True, True, True, True, True], [False, True, True, False, True, True, True, True, True, True], [False, False, False, False, False, False, True, True, True, True], [False, True, True, True, True, False, True, True, True, True], [False, False, False, False, False, False, True, True, True, True], [True, True, True, True, True, True, True, True, True, True], [True, True, True, True, True, True, True, True, True, True], [True, True, True, True, True, True, True, True, True, True], [True, True, True, True, True, True, True, True, True, True]]",trial_end,perfect-reconstruction-translation,38959.0,2.0,0.0,,,,,
36,64274c81e158fd5aa124371a,1680296978827.0,,build,"{'blocks': [{'x': 0, 'y': 0, 'height': 1, 'width': 2}, {'x': 1, 'y': 1, 'height': 2, 'width': 1}, {'x': 0, 'y': 3, 'height': 1, 'width': 2}, {'x': 1, 'y': 4, 'height': 2, 'width': 1}, {'x': 2, 'y': 0, 'height': 1, 'width': 2}, {'x': 3, 'y': 1, 'height': 2, 'width': 1}, {'x': 3, 'y': 3, 'height': 2, 'width': 1}, {'x': 2, 'y': 5, 'height': 1, 'width': 2}]}",,15,0000000000000000011100000101000011010000010100000101000011110000,talls_097_118,tall_097,wide_006,tall_118,wide_010,talls_097_118,talls_097_118,block-tower-building-undo,5,277512,0.0-5.0,block_construction_build_components,build_components_build_recall_prolific_pilot_6_towers_2_rep,63e51bec3af1cc5baf0c726a,6806-1b0c1fdb-1f6a-435c-8953-e906215530ab,Prolific,trial_end,1680297063586.0,274173.0,"[{'x': 6, 'y': 0, 'width': 2, 'height': 1}, {'x': 4, 'y': 0, 'width': 2, 'height': 1}, {'x': 5, 'y': 1, 'width': 1, 'height': 2}, {'x': 4, 'y': 3, 'width': 2, 'height': 1}, {'x': 5, 'y': 4, 'width': 1, 'height': 2}, {'x': 7, 'y': 1, 'width': 1, 'height': 2}, {'x': 7, 'y': 3, 'width': 1, 'height': 2}, {'x': 6, 'y': 5, 'width': 2, 'height': 1}]","[[True, True, True, True, True, True, True, True, True, True], [True, True, True, True, True, True, True, True, True, True], [True, True, True, True, True, True, True, True, True, True], [True, True, True, True, True, True, True, True, True, True], [False, True, True, False, True, True, True, True, True, True], [False, False, False, False, False, False, True, True, True, True], [False, True, True, True, True, False, True, True, True, True], [False, False, False, False, False, False, True, True, True, True], [True, True, True, True, True, True, True, True, True, True], [True, True, True, True, True, True, True, True, True, True], [True, True, True, True, True, True, True, True, True, True], [True, True, True, True, True, True, True, True, True, True]]",trial_end,perfect-reconstruction-translation,84760.0,1.0,0.0,,,,,
37,64274c89e158fd5aa1243725,1680297080938.0,1680297096022.0,view,"{'blocks': [{'x': 0, 'y': 0, 'height': 2, 'width': 1}, {'x': 0, 'y': 2, 'height': 1, 'width': 2}, {'x': 0, 'y': 3, 'height': 2, 'width': 1}, {'x': 0, 'y': 5, 'height': 1, 'width': 2}, {'x': 2, 'y': 0, 'height': 1, 'width': 2}, {'x': 2, 'y': 1, 'height': 2, 'width': 1}, {'x': 2, 'y': 3, 'height': 2, 'width': 1}, {'x': 2, 'y': 5, 'height': 1, 'width': 2}]}",,36,0000000000000000111100001010000010100000111000001010000010110000,talls_127_125,tall_127,wide_020,tall_125,wide_025,talls_127_125,talls_127_125,block-tower-viewing,14,445667,0.0-14.0,block_construction_build_components,build_components_build_recall_prolific_pilot_6_towers_2_rep,63d419bfcbf7d56de633f50d,2793-746fc5b9-f318-4963-82a4-3ec1818eb7fc,Prolific,trial_end,,,,,,,,,,,,,,
38,64274c8ae158fd5aa1243727,1680297076762.0,,build,"{'blocks': [{'x': 0, 'y': 0, 'height': 1, 'width': 2}, {'x': 0, 'y': 1, 'height': 2, 'width': 1}, {'x': 0, 'y': 3, 'height': 1, 'width': 2}, {'x': 0, 'y': 4, 'height': 2, 'width': 1}, {'x': 2, 'y': 0, 'height': 1, 'width': 2}, {'x': 3, 'y': 1, 'height': 2, 'width': 1}, {'x': 2, 'y': 3, 'height': 1, 'width': 2}, {'x': 2, 'y': 4, 'height': 2, 'width': 1}]}",,5,0000000000000000101000001010000011110000100100001001000011110000,talls_114_111,tall_114,wide_013,tall_111,wide_014,talls_114_111,talls_114_111,block-tower-building-undo,7,223132,0.0-7.0,block_construction_build_components,build_components_build_recall_prolific_pilot_6_towers_2_rep,606b9a381ba4c85dd950fbf7,0559-000a48f8-3af5-4489-a83b-7158b6fc5fb9,Prolific,trial_end,1680297094198.0,220354.0,"[{'x': 4, 'y': 0, 'width': 2, 'height': 1}, {'x': 6, 'y': 0, 'width': 2, 'height': 1}, {'x': 4, 'y': 1, 'width': 1, 'height': 2}, {'x': 7, 'y': 1, 'width': 1, 'height': 2}, {'x': 6, 'y': 3, 'width': 2, 'height': 1}, {'x': 4, 'y': 3, 'width': 2, 'height': 1}, {'x': 4, 'y': 4, 'width': 1, 'height': 2}, {'x': 6, 'y': 4, 'width': 1, 'height': 2}]","[[True, True, True, True, True, True, True, True, True, True], [True, True, True, True, True, True, True, True, True, True], [True, True, True, True, True, True, True, True, True, True], [True, True, True, True, True, True, True, True, True, True], [False, False, False, False, False, False, True, True, True, True], [False, True, True, False, True, True, True, True, True, True], [False, True, True, False, False, False, True, True, True, True], [False, False, False, False, True, True, True, True, True, True], [True, True, True, True, True, True, True, True, True, True], [True, True, True, True, True, True, True, True, True, True], [True, True, True, True, True, True, True, True, True, True], [True, True, True, True, True, True, True, True, True, True]]",trial_end,perfect-reconstruction-translation,17439.0,1.0,0.0,,,,,
39,64274c8be158fd5aa1243728,1680297082044.0,,build,"{'blocks': [{'x': 0, 'y': 0, 'height': 1, 'width': 2}, {'x': 1, 'y': 1, 'height': 2, 'width': 1}, {'x': 0, 'y': 3, 'height': 1, 'width': 2}, {'x': 1, 'y': 4, 'height': 2, 'width': 1}, {'x': 2, 'y': 0, 'height': 1, 'width': 2}, {'x': 3, 'y': 1, 'height': 2, 'width': 1}, {'x': 3, 'y': 3, 'height': 2, 'width': 1}, {'x': 2, 'y': 5, 'height': 1, 'width': 2}]}",,5,0000000000000000011100000101000011010000010100000101000011110000,talls_097_118,tall_097,wide_006,tall_118,wide_010,talls_097_118,talls_097_118,block-tower-building-undo,7,177978,0.0-7.0,block_construction_build_components,build_components_build_recall_prolific_pilot_6_towers_2_rep,5980f157413c230001291b22,1510-718bfa55-e1e6-4fc6-884b-cf040464e4e4,Prolific,trial_end,1680297098516.0,175505.0,"[{'x': 3, 'y': 0, 'width': 2, 'height': 1}, {'x': 5, 'y': 0, 'width': 2, 'height': 1}, {'x': 6, 'y': 1, 'width': 1, 'height': 2}, {'x': 6, 'y': 3, 'width': 1, 'height': 2}, {'x': 5, 'y': 5, 'width': 2, 'height': 1}, {'x': 4, 'y': 1, 'width': 1, 'height': 2}, {'x': 3, 'y': 3, 'width': 2, 'height': 1}, {'x': 4, 'y': 4, 'width': 1, 'height': 2}]","[[True, True, True, True, True, True, True, True, True, True], [True, True, True, True, True, True, True, True, True, True], [True, True, True, True, True, True, True, True, True, True], [False, True, True, False, True, True, True, True, True, True], [False, False, False, False, False, False, True, True, True, True], [False, True, True, True, True, False, True, True, True, True], [False, False, False, False, False, False, True, True, True, True], [True, True, True, True, True, True, True, True, True, True], [True, True, True, True, True, True, True, True, True, True], [True, True, True, True, True, True, True, True, True, True], [True, True, True, True, True, True, True, True, True, True], [True, True, True, True, True, True, True, True, True, True]]",trial_end,perfect-reconstruction-translation,16472.0,1.0,0.0,,,,,
40,64274c9be158fd5aa124372f,1680297103132.0,1680297118138.0,view,"{'blocks': [{'x': 1, 'y': 0, 'height': 2, 'width': 1}, {'x': 0, 'y': 2, 'height': 1, 'width': 2}, {'x': 0, 'y': 3, 'height': 1, 'width': 2}, {'x': 1, 'y': 4, 'height': 2, 'width': 1}, {'x': 2, 'y': 0, 'height': 1, 'width': 2}, {'x': 3, 'y': 1, 'height': 2, 'width': 1}, {'x': 2, 'y': 3, 'height': 1, 'width': 2}, {'x': 2, 'y': 4, 'height': 2, 'width': 1}]}",,6,0000000000000000011000000110000011110000110100000101000001110000,talls_101_111,tall_101,wide_018,tall_111,wide_008,talls_101_111,talls_101_111,block-tower-viewing,8,194596,0.0-8.0,block_construction_build_components,build_components_build_recall_prolific_pilot_6_towers_2_rep,5980f157413c230001291b22,1510-718bfa55-e1e6-4fc6-884b-cf040464e4e4,Prolific,trial_end,,,,,,,,,,,,,,
41,64274c9ce158fd5aa1243730,1680297099620.0,1680297114761.0,view,"{'blocks': [{'x': 0, 'y': 0, 'height': 2, 'width': 1}, {'x': 0, 'y': 2, 'height': 1, 'width': 2}, {'x': 0, 'y': 3, 'height': 1, 'width': 2}, {'x': 0, 'y': 4, 'height': 2, 'width': 1}, {'x': 2, 'y': 0, 'height': 1, 'width': 2}, {'x': 2, 'y': 1, 'height': 2, 'width': 1}, {'x': 2, 'y': 3, 'height': 1, 'width': 2}, {'x': 3, 'y': 4, 'height': 2, 'width': 1}]}",,6,0000000000000000100100001001000011110000111000001010000010110000,talls_116_100,tall_116,wide_020,tall_100,wide_013,talls_116_100,talls_116_100,block-tower-viewing,8,240401,0.0-8.0,block_construction_build_components,build_components_build_recall_prolific_pilot_6_towers_2_rep,606b9a381ba4c85dd950fbf7,0559-000a48f8-3af5-4489-a83b-7158b6fc5fb9,Prolific,trial_end,,,,,,,,,,,,,,
42,64274cace158fd5aa1243742,1680297119751.0,1680297134755.0,view,"{'blocks': [{'x': 0, 'y': 0, 'height': 1, 'width': 2}, {'x': 1, 'y': 1, 'height': 2, 'width': 1}, {'x': 1, 'y': 3, 'height': 2, 'width': 1}, {'x': 0, 'y': 5, 'height': 1, 'width': 2}, {'x': 3, 'y': 0, 'height': 2, 'width': 1}, {'x': 2, 'y': 2, 'height': 1, 'width': 2}, {'x': 3, 'y': 3, 'height': 2, 'width': 1}, {'x': 2, 'y': 5, 'height': 1, 'width': 2}]}",,7,0000000000000000111100000101000001010000011100000101000011010000,talls_118_121,tall_118,wide_010,tall_121,wide_022,talls_118_121,talls_118_121,block-tower-viewing,9,211213,0.0-9.0,block_construction_build_components,build_components_build_recall_prolific_pilot_6_towers_2_rep,5980f157413c230001291b22,1510-718bfa55-e1e6-4fc6-884b-cf040464e4e4,Prolific,trial_end,,,,,,,,,,,,,,
43,64274cade158fd5aa1243745,1680297116574.0,1680297131837.0,view,"{'blocks': [{'x': 1, 'y': 0, 'height': 2, 'width': 1}, {'x': 0, 'y': 2, 'height': 1, 'width': 2}, {'x': 1, 'y': 3, 'height': 2, 'width': 1}, {'x': 0, 'y': 5, 'height': 1, 'width': 2}, {'x': 3, 'y': 0, 'height': 2, 'width': 1}, {'x': 2, 'y': 2, 'height': 1, 'width': 2}, {'x': 2, 'y': 3, 'height': 1, 'width': 2}, {'x': 3, 'y': 4, 'height': 2, 'width': 1}]}",,7,0000000000000000110100000101000001110000111100000101000001010000,talls_121_101,tall_121,wide_022,tall_101,wide_018,talls_121_101,talls_121_101,block-tower-viewing,9,257565,0.0-9.0,block_construction_build_components,build_components_build_recall_prolific_pilot_6_towers_2_rep,606b9a381ba4c85dd950fbf7,0559-000a48f8-3af5-4489-a83b-7158b6fc5fb9,Prolific,trial_end,,,,,,,,,,,,,,
44,64274cbce158fd5aa124376b,1680297068204.0,,build,"{'blocks': [{'x': 0, 'y': 0, 'height': 1, 'width': 2}, {'x': 1, 'y': 1, 'height': 2, 'width': 1}, {'x': 1, 'y': 3, 'height': 2, 'width': 1}, {'x': 0, 'y': 5, 'height': 1, 'width': 2}, {'x': 3, 'y': 0, 'height': 2, 'width': 1}, {'x': 2, 'y': 2, 'height': 1, 'width': 2}, {'x': 3, 'y': 3, 'height': 2, 'width': 1}, {'x': 2, 'y': 5, 'height': 1, 'width': 2}]}",,16,0000000000000000111100000101000001010000011100000101000011010000,talls_118_121,tall_118,wide_010,tall_121,wide_022,talls_118_121,talls_118_121,block-tower-building-undo,6,336081,0.0-6.0,block_construction_build_components,build_components_build_recall_prolific_pilot_6_towers_2_rep,63e51bec3af1cc5baf0c726a,6806-1b0c1fdb-1f6a-435c-8953-e906215530ab,Prolific,trial_end,1680297122083.0,332670.0,"[{'x': 3, 'y': 0, 'width': 2, 'height': 1}, {'x': 6, 'y': 0, 'width': 1, 'height': 2}, {'x': 4, 'y': 1, 'width': 1, 'height': 2}, {'x': 5, 'y': 2, 'width': 2, 'height': 1}, {'x': 4, 'y': 3, 'width': 1, 'height': 2}, {'x': 6, 'y': 3, 'width': 1, 'height': 2}, {'x': 5, 'y': 5, 'width': 2, 'height': 1}, {'x': 3, 'y': 5, 'width': 2, 'height': 1}]","[[True, True, True, True, True, True, True, True, True, True], [True, True, True, True, True, True, True, True, True, True], [True, True, True, True, True, True, True, True, True, True], [False, True, True, True, True, False, True, True, True, True], [False, False, False, False, False, False, True, True, True, True], [True, True, False, True, True, False, True, True, True, True], [False, False, False, False, False, False, True, True, True, True], [True, True, True, True, True, True, True, True, True, True], [True, True, True, True, True, True, True, True, True, True], [True, True, True, True, True, True, True, True, True, True], [True, True, True, True, True, True, True, True, True, True], [True, True, True, True, True, True, True, True, True, True]]",trial_end,perfect-reconstruction-translation,53880.0,1.0,0.0,,,,,
45,64274cbee158fd5aa1243770,1680297136368.0,,build,"{'blocks': [{'x': 0, 'y': 0, 'height': 1, 'width': 2}, {'x': 1, 'y': 1, 'height': 2, 'width': 1}, {'x': 0, 'y': 3, 'height': 1, 'width': 2}, {'x': 1, 'y': 4, 'height': 2, 'width': 1}, {'x': 2, 'y': 0, 'height': 1, 'width': 2}, {'x': 3, 'y': 1, 'height': 2, 'width': 1}, {'x': 3, 'y': 3, 'height': 2, 'width': 1}, {'x': 2, 'y': 5, 'height': 1, 'width': 2}]}",,8,0000000000000000011100000101000011010000010100000101000011110000,talls_097_118,tall_097,wide_006,tall_118,wide_010,talls_097_118,talls_097_118,block-tower-building-undo,10,229703,0.0-10.0,block_construction_build_components,build_components_build_recall_prolific_pilot_6_towers_2_rep,5980f157413c230001291b22,1510-718bfa55-e1e6-4fc6-884b-cf040464e4e4,Prolific,trial_end,1680297150193.0,227182.0,"[{'x': 3, 'y': 0, 'width': 2, 'height': 1}, {'x': 5, 'y': 0, 'width': 2, 'height': 1}, {'x': 4, 'y': 1, 'width': 1, 'height': 2}, {'x': 3, 'y': 3, 'width': 2, 'height': 1}, {'x': 4, 'y': 4, 'width': 1, 'height': 2}, {'x': 6, 'y': 1, 'width': 1, 'height': 2}, {'x': 6, 'y': 3, 'width': 1, 'height': 2}, {'x': 5, 'y': 5, 'width': 2, 'height': 1}]","[[True, True, True, True, True, True, True, True, True, True], [True, True, True, True, True, True, True, True, True, True], [True, True, True, True, True, True, True, True, True, True], [False, True, True, False, True, True, True, True, True, True], [False, False, False, False, False, False, True, True, True, True], [False, True, True, True, True, False, True, True, True, True], [False, False, False, False, False, False, True, True, True, True], [True, True, True, True, True, True, True, True, True, True], [True, True, True, True, True, True, True, True, True, True], [True, True, True, True, True, True, True, True, True, True], [True, True, True, True, True, True, True, True, True, True], [True, True, True, True, True, True, True, True, True, True]]",trial_end,perfect-reconstruction-translation,13825.0,2.0,0.0,,,,,
46,64274ccde158fd5aa124378e,1680297126799.0,1680297141847.0,view,"{'blocks': [{'x': 1, 'y': 0, 'height': 2, 'width': 1}, {'x': 0, 'y': 2, 'height': 1, 'width': 2}, {'x': 1, 'y': 3, 'height': 2, 'width': 1}, {'x': 0, 'y': 5, 'height': 1, 'width': 2}, {'x': 3, 'y': 0, 'height': 2, 'width': 1}, {'x': 2, 'y': 2, 'height': 1, 'width': 2}, {'x': 2, 'y': 3, 'height': 1, 'width': 2}, {'x': 3, 'y': 4, 'height': 2, 'width': 1}]}",,17,0000000000000000110100000101000001110000111100000101000001010000,talls_121_101,tall_121,wide_022,tall_101,wide_018,talls_121_101,talls_121_101,block-tower-viewing,7,352787,0.0-7.0,block_construction_build_components,build_components_build_recall_prolific_pilot_6_towers_2_rep,63e51bec3af1cc5baf0c726a,6806-1b0c1fdb-1f6a-435c-8953-e906215530ab,Prolific,trial_end,,,,,,,,,,,,,,
47,64274cd1e158fd5aa1243799,1680297154882.0,,build,"{'blocks': [{'x': 0, 'y': 0, 'height': 2, 'width': 1}, {'x': 0, 'y': 2, 'height': 1, 'width': 2}, {'x': 0, 'y': 3, 'height': 1, 'width': 2}, {'x': 1, 'y': 4, 'height': 2, 'width': 1}, {'x': 3, 'y': 0, 'height': 2, 'width': 1}, {'x': 2, 'y': 2, 'height': 1, 'width': 2}, {'x': 2, 'y': 3, 'height': 2, 'width': 1}, {'x': 2, 'y': 5, 'height': 1, 'width': 2}]}",,9,0000000000000000011100000110000011100000111100001001000010010000,talls_102_126,tall_102,wide_024,tall_126,wide_011,talls_102_126,talls_102_126,block-tower-building-undo,11,248081,0.0-11.0,block_construction_build_components,build_components_build_recall_prolific_pilot_6_towers_2_rep,5980f157413c230001291b22,1510-718bfa55-e1e6-4fc6-884b-cf040464e4e4,Prolific,trial_end,1680297168576.0,245565.0,"[{'x': 4, 'y': 0, 'width': 1, 'height': 2}, {'x': 7, 'y': 0, 'width': 1, 'height': 2}, {'x': 4, 'y': 2, 'width': 2, 'height': 1}, {'x': 6, 'y': 2, 'width': 2, 'height': 1}, {'x': 4, 'y': 3, 'width': 2, 'height': 1}, {'x': 6, 'y': 3, 'width': 1, 'height': 2}, {'x': 6, 'y': 5, 'width': 2, 'height': 1}, {'x': 5, 'y': 4, 'width': 1, 'height': 2}]","[[True, True, True, True, True, True, True, True, True, True], [True, True, True, True, True, True, True, True, True, True], [True, True, True, True, True, True, True, True, True, True], [True, True, True, True, True, True, True, True, True, True], [False, False, False, False, True, True, True, True, True, True], [True, True, False, False, False, False, True, True, True, True], [True, True, False, False, False, False, True, True, True, True], [False, False, False, True, True, False, True, True, True, True], [True, True, True, True, True, True, True, True, True, True], [True, True, True, True, True, True, True, True, True, True], [True, True, True, True, True, True, True, True, True, True], [True, True, True, True, True, True, True, True, True, True]]",trial_end,perfect-reconstruction-translation,13694.0,2.0,0.0,,,,,
48,64274cdae158fd5aa12437aa,1680296948340.0,,build,"{'blocks': [{'x': 1, 'y': 0, 'height': 2, 'width': 1}, {'x': 0, 'y': 2, 'height': 1, 'width': 2}, {'x': 1, 'y': 3, 'height': 2, 'width': 1}, {'x': 0, 'y': 5, 'height': 1, 'width': 2}, {'x': 3, 'y': 0, 'height': 2, 'width': 1}, {'x': 2, 'y': 2, 'height': 1, 'width': 2}, {'x': 2, 'y': 3, 'height': 1, 'width': 2}, {'x': 3, 'y': 4, 'height': 2, 'width': 1}]}",,1,0000000000000000110100000101000001110000111100000101000001010000,talls_121_101,tall_121,wide_022,tall_101,wide_018,talls_121_101,talls_121_101,block-tower-building-undo,3,320412,0.0-3.0,block_construction_build_components,build_components_build_recall_prolific_pilot_6_towers_2_rep,5e5f684cd6bfcc29d1e5da67,0906-c7df6e7c-dbee-4ad8-9dc4-146e043ac321,Prolific,trial_end,1680297175647.0,317309.0,"[{'x': 4, 'y': 0, 'width': 1, 'height': 2}, {'x': 3, 'y': 2, 'width': 2, 'height': 1}, {'x': 6, 'y': 0, 'width': 1, 'height': 2}, {'x': 5, 'y': 2, 'width': 2, 'height': 1}, {'x': 5, 'y': 3, 'width': 2, 'height': 1}, {'x': 4, 'y': 3, 'width': 1, 'height': 2}, {'x': 3, 'y': 5, 'width': 2, 'height': 1}, {'x': 6, 'y': 4, 'width': 1, 'height': 2}]","[[True, True, True, True, True, True, True, True, True, True], [True, True, True, True, True, True, True, True, True, True], [True, True, True, True, True, True, True, True, True, True], [True, True, False, True, True, False, True, True, True, True], [False, False, False, False, False, False, True, True, True, True], [True, True, False, False, True, True, True, True, True, True], [False, False, False, False, False, False, True, True, True, True], [True, True, True, True, True, True, True, True, True, True], [True, True, True, True, True, True, True, True, True, True], [True, True, True, True, True, True, True, True, True, True], [True, True, True, True, True, True, True, True, True, True], [True, True, True, True, True, True, True, True, True, True]]",trial_end,perfect-reconstruction-translation,227309.0,1.0,3.0,,,,,
49,64274ce1e158fd5aa12437ba,1680297173270.0,1680297188298.0,view,"{'blocks': [{'x': 1, 'y': 0, 'height': 2, 'width': 1}, {'x': 0, 'y': 2, 'height': 1, 'width': 2}, {'x': 0, 'y': 3, 'height': 1, 'width': 2}, {'x': 1, 'y': 4, 'height': 2, 'width': 1}, {'x': 2, 'y': 0, 'height': 1, 'width': 2}, {'x': 3, 'y': 1, 'height': 2, 'width': 1}, {'x': 2, 'y': 3, 'height': 1, 'width': 2}, {'x': 2, 'y': 4, 'height': 2, 'width': 1}]}",,10,0000000000000000011000000110000011110000110100000101000001110000,talls_101_111,tall_101,wide_018,tall_111,wide_008,talls_101_111,talls_101_111,block-tower-viewing,12,264778,0.0-12.0,block_construction_build_components,build_components_build_recall_prolific_pilot_6_towers_2_rep,5980f157413c230001291b22,1510-718bfa55-e1e6-4fc6-884b-cf040464e4e4,Prolific,trial_end,,,,,,,,,,,,,,
50,64274ce3e158fd5aa12437bc,1680297133704.0,,build,"{'blocks': [{'x': 0, 'y': 0, 'height': 1, 'width': 2}, {'x': 1, 'y': 1, 'height': 2, 'width': 1}, {'x': 0, 'y': 3, 'height': 1, 'width': 2}, {'x': 1, 'y': 4, 'height': 2, 'width': 1}, {'x': 2, 'y': 0, 'height': 1, 'width': 2}, {'x': 3, 'y': 1, 'height': 2, 'width': 1}, {'x': 3, 'y': 3, 'height': 2, 'width': 1}, {'x': 2, 'y': 5, 'height': 1, 'width': 2}]}",,8,0000000000000000011100000101000011010000010100000101000011110000,talls_097_118,tall_097,wide_006,tall_118,wide_010,talls_097_118,talls_097_118,block-tower-building-undo,10,311357,0.0-10.0,block_construction_build_components,build_components_build_recall_prolific_pilot_6_towers_2_rep,606b9a381ba4c85dd950fbf7,0559-000a48f8-3af5-4489-a83b-7158b6fc5fb9,Prolific,trial_end,1680297182716.0,308872.0,"[{'x': 5, 'y': 0, 'width': 2, 'height': 1}, {'x': 7, 'y': 0, 'width': 2, 'height': 1}, {'x': 6, 'y': 1, 'width': 1, 'height': 2}, {'x': 5, 'y': 3, 'width': 2, 'height': 1}, {'x': 6, 'y': 4, 'width': 1, 'height': 2}, {'x': 8, 'y': 1, 'width': 1, 'height': 2}, {'x': 8, 'y': 3, 'width': 1, 'height': 2}, {'x': 7, 'y': 5, 'width': 2, 'height': 1}]","[[True, True, True, True, True, True, True, True, True, True], [True, True, True, True, True, True, True, True, True, True], [True, True, True, True, True, True, True, True, True, True], [True, True, True, True, True, True, True, True, True, True], [True, True, True, True, True, True, True, True, True, True], [False, True, True, False, True, True, True, True, True, True], [False, False, False, False, False, False, True, True, True, True], [False, True, True, True, True, False, True, True, True, True], [False, False, False, False, False, False, True, True, True, True], [True, True, True, True, True, True, True, True, True, True], [True, True, True, True, True, True, True, True, True, True], [True, True, True, True, True, True, True, True, True, True]]",trial_end,perfect-reconstruction-translation,49014.0,2.0,2.0,,,,,
51,64274ceae158fd5aa12437c3,1680297143490.0,,build,"{'blocks': [{'x': 0, 'y': 0, 'height': 1, 'width': 2}, {'x': 0, 'y': 1, 'height': 2, 'width': 1}, {'x': 0, 'y': 3, 'height': 1, 'width': 2}, {'x': 1, 'y': 4, 'height': 2, 'width': 1}, {'x': 2, 'y': 0, 'height': 1, 'width': 2}, {'x': 3, 'y': 1, 'height': 2, 'width': 1}, {'x': 2, 'y': 3, 'height': 1, 'width': 2}, {'x': 3, 'y': 4, 'height': 2, 'width': 1}]}",,18,0000000000000000010100000101000011110000100100001001000011110000,talls_100_097,tall_100,wide_013,tall_097,wide_006,talls_100_097,talls_100_097,block-tower-building-undo,8,381979,0.0-8.0,block_construction_build_components,build_components_build_recall_prolific_pilot_6_towers_2_rep,63e51bec3af1cc5baf0c726a,6806-1b0c1fdb-1f6a-435c-8953-e906215530ab,Prolific,trial_end,1680297167985.0,378572.0,"[{'x': 6, 'y': 0, 'width': 2, 'height': 1}, {'x': 4, 'y': 0, 'width': 2, 'height': 1}, {'x': 4, 'y': 1, 'width': 1, 'height': 2}, {'x': 7, 'y': 1, 'width': 1, 'height': 2}, {'x': 6, 'y': 3, 'width': 2, 'height': 1}, {'x': 4, 'y': 3, 'width': 2, 'height': 1}, {'x': 5, 'y': 4, 'width': 1, 'height': 2}, {'x': 7, 'y': 4, 'width': 1, 'height': 2}]","[[True, True, True, True, True, True, True, True, True, True], [True, True, True, True, True, True, True, True, True, True], [True, True, True, True, True, True, True, True, True, True], [True, True, True, True, True, True, True, True, True, True], [False, False, False, False, True, True, True, True, True, True], [False, True, True, False, False, False, True, True, True, True], [False, True, True, False, True, True, True, True, True, True], [False, False, False, False, False, False, True, True, True, True], [True, True, True, True, True, True, True, True, True, True], [True, True, True, True, True, True, True, True, True, True], [True, True, True, True, True, True, True, True, True, True], [True, True, True, True, True, True, True, True, True, True]]",trial_end,perfect-reconstruction-translation,24497.0,1.0,0.0,,,,,
52,64274cebe158fd5aa12437c5,1680297180263.0,1680297195278.0,view,"{'blocks': [{'x': 0, 'y': 0, 'height': 2, 'width': 1}, {'x': 0, 'y': 2, 'height': 1, 'width': 2}, {'x': 0, 'y': 3, 'height': 1, 'width': 2}, {'x': 1, 'y': 4, 'height': 2, 'width': 1}, {'x': 3, 'y': 0, 'height': 2, 'width': 1}, {'x': 2, 'y': 2, 'height': 1, 'width': 2}, {'x': 2, 'y': 3, 'height': 2, 'width': 1}, {'x': 2, 'y': 5, 'height': 1, 'width': 2}]}",,2,0000000000000000011100000110000011100000111100001001000010010000,talls_102_126,tall_102,wide_024,tall_126,wide_011,talls_102_126,talls_102_126,block-tower-viewing,4,337039,0.0-4.0,block_construction_build_components,build_components_build_recall_prolific_pilot_6_towers_2_rep,5e5f684cd6bfcc29d1e5da67,0906-c7df6e7c-dbee-4ad8-9dc4-146e043ac321,Prolific,trial_end,,,,,,,,,,,,,,
53,64274cf2e158fd5aa12437ca,1680297189961.0,1680297204995.0,view,"{'blocks': [{'x': 0, 'y': 0, 'height': 2, 'width': 1}, {'x': 0, 'y': 2, 'height': 1, 'width': 2}, {'x': 0, 'y': 3, 'height': 1, 'width': 2}, {'x': 0, 'y': 4, 'height': 2, 'width': 1}, {'x': 2, 'y': 0, 'height': 1, 'width': 2}, {'x': 2, 'y': 1, 'height': 2, 'width': 1}, {'x': 2, 'y': 3, 'height': 1, 'width': 2}, {'x': 3, 'y': 4, 'height': 2, 'width': 1}]}",,11,0000000000000000100100001001000011110000111000001010000010110000,talls_116_100,tall_116,wide_020,tall_100,wide_013,talls_116_100,talls_116_100,block-tower-viewing,13,281475,0.0-13.0,block_construction_build_components,build_components_build_recall_prolific_pilot_6_towers_2_rep,5980f157413c230001291b22,1510-718bfa55-e1e6-4fc6-884b-cf040464e4e4,Prolific,trial_end,,,,,,,,,,,,,,
54,64274cf4e158fd5aa12437cd,1680297187705.0,1680297202923.0,view,"{'blocks': [{'x': 1, 'y': 0, 'height': 2, 'width': 1}, {'x': 0, 'y': 2, 'height': 1, 'width': 2}, {'x': 0, 'y': 3, 'height': 1, 'width': 2}, {'x': 1, 'y': 4, 'height': 2, 'width': 1}, {'x': 2, 'y': 0, 'height': 1, 'width': 2}, {'x': 3, 'y': 1, 'height': 2, 'width': 1}, {'x': 2, 'y': 3, 'height': 1, 'width': 2}, {'x': 2, 'y': 4, 'height': 2, 'width': 1}]}",,9,0000000000000000011000000110000011110000110100000101000001110000,talls_101_111,tall_101,wide_018,tall_111,wide_008,talls_101_111,talls_101_111,block-tower-viewing,11,328593,0.0-11.0,block_construction_build_components,build_components_build_recall_prolific_pilot_6_towers_2_rep,606b9a381ba4c85dd950fbf7,0559-000a48f8-3af5-4489-a83b-7158b6fc5fb9,Prolific,trial_end,,,,,,,,,,,,,,
55,64274cfbe158fd5aa12437de,1680297172725.0,1680297187786.0,view,"{'blocks': [{'x': 1, 'y': 0, 'height': 2, 'width': 1}, {'x': 0, 'y': 2, 'height': 1, 'width': 2}, {'x': 0, 'y': 3, 'height': 1, 'width': 2}, {'x': 1, 'y': 4, 'height': 2, 'width': 1}, {'x': 2, 'y': 0, 'height': 1, 'width': 2}, {'x': 3, 'y': 1, 'height': 2, 'width': 1}, {'x': 2, 'y': 3, 'height': 1, 'width': 2}, {'x': 2, 'y': 4, 'height': 2, 'width': 1}]}",,19,0000000000000000011000000110000011110000110100000101000001110000,talls_101_111,tall_101,wide_018,tall_111,wide_008,talls_101_111,talls_101_111,block-tower-viewing,9,398762,0.0-9.0,block_construction_build_components,build_components_build_recall_prolific_pilot_6_towers_2_rep,63e51bec3af1cc5baf0c726a,6806-1b0c1fdb-1f6a-435c-8953-e906215530ab,Prolific,trial_end,,,,,,,,,,,,,,
56,64274d05e158fd5aa12437ee,1680297204988.0,1680297220207.0,view,"{'blocks': [{'x': 0, 'y': 0, 'height': 2, 'width': 1}, {'x': 0, 'y': 2, 'height': 1, 'width': 2}, {'x': 0, 'y': 3, 'height': 1, 'width': 2}, {'x': 0, 'y': 4, 'height': 2, 'width': 1}, {'x': 2, 'y': 0, 'height': 1, 'width': 2}, {'x': 2, 'y': 1, 'height': 2, 'width': 1}, {'x': 2, 'y': 3, 'height': 1, 'width': 2}, {'x': 3, 'y': 4, 'height': 2, 'width': 1}]}",,10,0000000000000000100100001001000011110000111000001010000010110000,talls_116_100,tall_116,wide_020,tall_100,wide_013,talls_116_100,talls_116_100,block-tower-viewing,12,345827,0.0-12.0,block_construction_build_components,build_components_build_recall_prolific_pilot_6_towers_2_rep,606b9a381ba4c85dd950fbf7,0559-000a48f8-3af5-4489-a83b-7158b6fc5fb9,Prolific,trial_end,,,,,,,,,,,,,,
57,64274d06e158fd5aa12437f2,1680297206664.0,,build,"{'blocks': [{'x': 0, 'y': 0, 'height': 1, 'width': 2}, {'x': 1, 'y': 1, 'height': 2, 'width': 1}, {'x': 0, 'y': 3, 'height': 1, 'width': 2}, {'x': 0, 'y': 4, 'height': 2, 'width': 1}, {'x': 2, 'y': 0, 'height': 2, 'width': 1}, {'x': 2, 'y': 2, 'height': 1, 'width': 2}, {'x': 2, 'y': 3, 'height': 2, 'width': 1}, {'x': 2, 'y': 5, 'height': 1, 'width': 2}]}",,12,0000000000000000101100001010000011100000011100000110000011100000,talls_111_127,tall_111,wide_011,tall_127,wide_015,talls_111_127,talls_111_127,block-tower-building-undo,14,301493,0.0-14.0,block_construction_build_components,build_components_build_recall_prolific_pilot_6_towers_2_rep,5980f157413c230001291b22,1510-718bfa55-e1e6-4fc6-884b-cf040464e4e4,Prolific,trial_end,1680297221980.0,298969.0,"[{'x': 4, 'y': 0, 'width': 2, 'height': 1}, {'x': 6, 'y': 0, 'width': 1, 'height': 2}, {'x': 6, 'y': 2, 'width': 2, 'height': 1}, {'x': 6, 'y': 3, 'width': 1, 'height': 2}, {'x': 6, 'y': 5, 'width': 2, 'height': 1}, {'x': 5, 'y': 1, 'width': 1, 'height': 2}, {'x': 4, 'y': 3, 'width': 2, 'height': 1}, {'x': 4, 'y': 4, 'width': 1, 'height': 2}]","[[True, True, True, True, True, True, True, True, True, True], [True, True, True, True, True, True, True, True, True, True], [True, True, True, True, True, True, True, True, True, True], [True, True, True, True, True, True, True, True, True, True], [False, True, True, False, False, False, True, True, True, True], [False, False, False, False, True, True, True, True, True, True], [False, False, False, False, False, False, True, True, True, True], [True, True, False, True, True, False, True, True, True, True], [True, True, True, True, True, True, True, True, True, True], [True, True, True, True, True, True, True, True, True, True], [True, True, True, True, True, True, True, True, True, True], [True, True, True, True, True, True, True, True, True, True]]",trial_end,perfect-reconstruction-translation,15317.0,2.0,0.0,,,,,
58,64274d0be158fd5aa12437f7,1680297189501.0,1680297204561.0,view,"{'blocks': [{'x': 1, 'y': 0, 'height': 2, 'width': 1}, {'x': 0, 'y': 2, 'height': 1, 'width': 2}, {'x': 1, 'y': 3, 'height': 2, 'width': 1}, {'x': 0, 'y': 5, 'height': 1, 'width': 2}, {'x': 3, 'y': 0, 'height': 2, 'width': 1}, {'x': 2, 'y': 2, 'height': 1, 'width': 2}, {'x': 2, 'y': 3, 'height': 1, 'width': 2}, {'x': 3, 'y': 4, 'height': 2, 'width': 1}]}",,20,0000000000000000110100000101000001110000111100000101000001010000,talls_121_101,tall_121,wide_022,tall_101,wide_018,talls_121_101,talls_121_101,block-tower-viewing,10,415526,0.0-10.0,block_construction_build_components,build_components_build_recall_prolific_pilot_6_towers_2_rep,63e51bec3af1cc5baf0c726a,6806-1b0c1fdb-1f6a-435c-8953-e906215530ab,Prolific,trial_end,,,,,,,,,,,,,,
59,64274d21e158fd5aa124381d,1680297080620.0,,build,"{'blocks': [{'x': 0, 'y': 0, 'height': 2, 'width': 1}, {'x': 0, 'y': 2, 'height': 1, 'width': 2}, {'x': 0, 'y': 3, 'height': 2, 'width': 1}, {'x': 0, 'y': 5, 'height': 1, 'width': 2}, {'x': 2, 'y': 0, 'height': 1, 'width': 2}, {'x': 2, 'y': 1, 'height': 2, 'width': 1}, {'x': 2, 'y': 3, 'height': 2, 'width': 1}, {'x': 2, 'y': 5, 'height': 1, 'width': 2}]}",,4,0000000000000000111100001010000010100000111000001010000010110000,talls_127_125,tall_127,wide_020,tall_125,wide_025,talls_127_125,talls_127_125,block-tower-building-undo,6,410685,0.0-6.0,block_construction_build_components,build_components_build_recall_prolific_pilot_6_towers_2_rep,5b1ba337c9d3cb00011030ca,7773-1b67ae19-c0ba-4173-916f-6905b72c894c,Prolific,trial_end,1680297245775.0,407352.0,"[{'x': 3, 'y': 0, 'width': 1, 'height': 2}, {'x': 3, 'y': 2, 'width': 2, 'height': 1}, {'x': 3, 'y': 3, 'width': 1, 'height': 2}, {'x': 3, 'y': 5, 'width': 2, 'height': 1}, {'x': 5, 'y': 0, 'width': 2, 'height': 1}, {'x': 5, 'y': 1, 'width': 1, 'height': 2}, {'x': 5, 'y': 3, 'width': 1, 'height': 2}, {'x': 5, 'y': 5, 'width': 2, 'height': 1}]","[[True, True, True, True, True, True, True, True, True, True], [True, True, True, True, True, True, True, True, True, True], [True, True, True, True, True, True, True, True, True, True], [False, False, False, False, False, False, True, True, True, True], [True, True, False, True, True, False, True, True, True, True], [False, False, False, False, False, False, True, True, True, True], [False, True, True, True, True, False, True, True, True, True], [True, True, True, True, True, True, True, True, True, True], [True, True, True, True, True, True, True, True, True, True], [True, True, True, True, True, True, True, True, True, True], [True, True, True, True, True, True, True, True, True, True], [True, True, True, True, True, True, True, True, True, True]]",trial_end,perfect-reconstruction-translation,165157.0,1.0,0.0,,,,,
60,64274d27e158fd5aa1243823,1680297196896.0,,build,"{'blocks': [{'x': 0, 'y': 0, 'height': 1, 'width': 2}, {'x': 1, 'y': 1, 'height': 2, 'width': 1}, {'x': 1, 'y': 3, 'height': 2, 'width': 1}, {'x': 0, 'y': 5, 'height': 1, 'width': 2}, {'x': 2, 'y': 0, 'height': 1, 'width': 2}, {'x': 2, 'y': 1, 'height': 2, 'width': 1}, {'x': 2, 'y': 3, 'height': 1, 'width': 2}, {'x': 2, 'y': 4, 'height': 2, 'width': 1}]}",,3,0000000000000000111000000110000001110000011000000110000011110000,talls_118_114,tall_118,wide_008,tall_114,wide_019,talls_118_114,talls_118_114,block-tower-building-undo,5,397064,0.0-5.0,block_construction_build_components,build_components_build_recall_prolific_pilot_6_towers_2_rep,5e5f684cd6bfcc29d1e5da67,0906-c7df6e7c-dbee-4ad8-9dc4-146e043ac321,Prolific,trial_end,1680297252269.0,393931.0,"[{'x': 4, 'y': 0, 'width': 2, 'height': 1}, {'x': 6, 'y': 0, 'width': 2, 'height': 1}, {'x': 5, 'y': 1, 'width': 2, 'height': 1}, {'x': 5, 'y': 2, 'width': 2, 'height': 1}, {'x': 6, 'y': 3, 'width': 2, 'height': 1}, {'x': 6, 'y': 4, 'width': 1, 'height': 2}, {'x': 5, 'y': 3, 'width': 1, 'height': 2}, {'x': 4, 'y': 5, 'width': 2, 'height': 1}]","[[True, True, True, True, True, True, True, True, True, True], [True, True, True, True, True, True, True, True, True, True], [True, True, True, True, True, True, True, True, True, True], [True, True, True, True, True, True, True, True, True, True], [False, True, True, True, True, False, True, True, True, True], [False, False, False, False, False, False, True, True, True, True], [False, False, False, False, False, False, True, True, True, True], [False, True, True, False, True, True, True, True, True, True], [True, True, True, True, True, True, True, True, True, True], [True, True, True, True, True, True, True, True, True, True], [True, True, True, True, True, True, True, True, True, True], [True, True, True, True, True, True, True, True, True, True]]",trial_end,perfect-reconstruction-translation,55373.0,1.0,0.0,,,,,
61,64274d37e158fd5aa124383b,1680297206258.0,,build,"{'blocks': [{'x': 0, 'y': 0, 'height': 1, 'width': 2}, {'x': 1, 'y': 1, 'height': 2, 'width': 1}, {'x': 0, 'y': 3, 'height': 1, 'width': 2}, {'x': 1, 'y': 4, 'height': 2, 'width': 1}, {'x': 2, 'y': 0, 'height': 1, 'width': 2}, {'x': 3, 'y': 1, 'height': 2, 'width': 1}, {'x': 3, 'y': 3, 'height': 2, 'width': 1}, {'x': 2, 'y': 5, 'height': 1, 'width': 2}]}",,21,0000000000000000011100000101000011010000010100000101000011110000,talls_097_118,tall_097,wide_006,tall_118,wide_010,talls_097_118,talls_097_118,block-tower-building-undo,11,459542,0.0-11.0,block_construction_build_components,build_components_build_recall_prolific_pilot_6_towers_2_rep,63e51bec3af1cc5baf0c726a,6806-1b0c1fdb-1f6a-435c-8953-e906215530ab,Prolific,trial_end,1680297244954.0,455541.0,"[{'x': 7, 'y': 0, 'width': 2, 'height': 1}, {'x': 5, 'y': 0, 'width': 2, 'height': 1}, {'x': 6, 'y': 1, 'width': 1, 'height': 2}, {'x': 5, 'y': 3, 'width': 2, 'height': 1}, {'x': 8, 'y': 1, 'width': 1, 'height': 2}, {'x': 8, 'y': 3, 'width': 1, 'height': 2}, {'x': 6, 'y': 4, 'width': 1, 'height': 2}, {'x': 7, 'y': 5, 'width': 2, 'height': 1}]","[[True, True, True, True, True, True, True, True, True, True], [True, True, True, True, True, True, True, True, True, True], [True, True, True, True, True, True, True, True, True, True], [True, True, True, True, True, True, True, True, True, True], [True, True, True, True, True, True, True, True, True, True], [False, True, True, False, True, True, True, True, True, True], [False, False, False, False, False, False, True, True, True, True], [False, True, True, True, True, False, True, True, True, True], [False, False, False, False, False, False, True, True, True, True], [True, True, True, True, True, True, True, True, True, True], [True, True, True, True, True, True, True, True, True, True], [True, True, True, True, True, True, True, True, True, True]]",trial_end,perfect-reconstruction-translation,38697.0,2.0,0.0,,,,,
62,64274d3fe158fd5aa1243845,1680297250495.0,,build,"{'blocks': [{'x': 0, 'y': 0, 'height': 1, 'width': 2}, {'x': 0, 'y': 1, 'height': 2, 'width': 1}, {'x': 0, 'y': 3, 'height': 1, 'width': 2}, {'x': 1, 'y': 4, 'height': 2, 'width': 1}, {'x': 2, 'y': 0, 'height': 1, 'width': 2}, {'x': 3, 'y': 1, 'height': 2, 'width': 1}, {'x': 2, 'y': 3, 'height': 1, 'width': 2}, {'x': 3, 'y': 4, 'height': 2, 'width': 1}]}",,5,0000000000000000010100000101000011110000100100001001000011110000,talls_100_097,tall_100,wide_013,tall_097,wide_006,talls_100_097,talls_100_097,block-tower-building-undo,7,439967,0.0-7.0,block_construction_build_components,build_components_build_recall_prolific_pilot_6_towers_2_rep,5b1ba337c9d3cb00011030ca,7773-1b67ae19-c0ba-4173-916f-6905b72c894c,Prolific,trial_end,1680297275018.0,436595.0,"[{'x': 3, 'y': 0, 'width': 2, 'height': 1}, {'x': 5, 'y': 0, 'width': 2, 'height': 1}, {'x': 3, 'y': 1, 'width': 1, 'height': 2}, {'x': 3, 'y': 3, 'width': 2, 'height': 1}, {'x': 6, 'y': 1, 'width': 1, 'height': 2}, {'x': 5, 'y': 3, 'width': 2, 'height': 1}, {'x': 4, 'y': 4, 'width': 1, 'height': 2}, {'x': 6, 'y': 4, 'width': 1, 'height': 2}]","[[True, True, True, True, True, True, True, True, True, True], [True, True, True, True, True, True, True, True, True, True], [True, True, True, True, True, True, True, True, True, True], [False, False, False, False, True, True, True, True, True, True], [False, True, True, False, False, False, True, True, True, True], [False, True, True, False, True, True, True, True, True, True], [False, False, False, False, False, False, True, True, True, True], [True, True, True, True, True, True, True, True, True, True], [True, True, True, True, True, True, True, True, True, True], [True, True, True, True, True, True, True, True, True, True], [True, True, True, True, True, True, True, True, True, True], [True, True, True, True, True, True, True, True, True, True]]",trial_end,perfect-reconstruction-translation,24524.0,1.0,0.0,,,,,
63,64274d48e158fd5aa1243855,1680297250556.0,1680297265690.0,view,"{'blocks': [{'x': 0, 'y': 0, 'height': 1, 'width': 2}, {'x': 0, 'y': 1, 'height': 2, 'width': 1}, {'x': 0, 'y': 3, 'height': 1, 'width': 2}, {'x': 0, 'y': 4, 'height': 2, 'width': 1}, {'x': 2, 'y': 0, 'height': 1, 'width': 2}, {'x': 3, 'y': 1, 'height': 2, 'width': 1}, {'x': 2, 'y': 3, 'height': 1, 'width': 2}, {'x': 2, 'y': 4, 'height': 2, 'width': 1}]}",,22,0000000000000000101000001010000011110000100100001001000011110000,talls_114_111,tall_114,wide_013,tall_111,wide_014,talls_114_111,talls_114_111,block-tower-viewing,12,476663,0.0-12.0,block_construction_build_components,build_components_build_recall_prolific_pilot_6_towers_2_rep,63e51bec3af1cc5baf0c726a,6806-1b0c1fdb-1f6a-435c-8953-e906215530ab,Prolific,trial_end,,,,,,,,,,,,,,
64,64274d4fe158fd5aa1243863,1680297279793.0,1680297294837.0,view,"{'blocks': [{'x': 0, 'y': 0, 'height': 1, 'width': 2}, {'x': 1, 'y': 1, 'height': 2, 'width': 1}, {'x': 0, 'y': 3, 'height': 1, 'width': 2}, {'x': 1, 'y': 4, 'height': 2, 'width': 1}, {'x': 2, 'y': 0, 'height': 1, 'width': 2}, {'x': 3, 'y': 1, 'height': 2, 'width': 1}, {'x': 3, 'y': 3, 'height': 2, 'width': 1}, {'x': 2, 'y': 5, 'height': 1, 'width': 2}]}",,6,0000000000000000011100000101000011010000010100000101000011110000,talls_097_118,tall_097,wide_006,tall_118,wide_010,talls_097_118,talls_097_118,block-tower-viewing,8,456723,0.0-8.0,block_construction_build_components,build_components_build_recall_prolific_pilot_6_towers_2_rep,5b1ba337c9d3cb00011030ca,7773-1b67ae19-c0ba-4173-916f-6905b72c894c,Prolific,trial_end,,,,,,,,,,,,,,
65,64274d58e158fd5aa124386e,1680297256942.0,,build,"{'blocks': [{'x': 0, 'y': 0, 'height': 1, 'width': 2}, {'x': 1, 'y': 1, 'height': 2, 'width': 1}, {'x': 0, 'y': 3, 'height': 1, 'width': 2}, {'x': 0, 'y': 4, 'height': 2, 'width': 1}, {'x': 2, 'y': 0, 'height': 2, 'width': 1}, {'x': 2, 'y': 2, 'height': 1, 'width': 2}, {'x': 2, 'y': 3, 'height': 2, 'width': 1}, {'x': 2, 'y': 5, 'height': 1, 'width': 2}]}",,4,0000000000000000101100001010000011100000011100000110000011100000,talls_111_127,tall_111,wide_011,tall_127,wide_015,talls_111_127,talls_111_127,block-tower-building-undo,6,446544,0.0-6.0,block_construction_build_components,build_components_build_recall_prolific_pilot_6_towers_2_rep,5e5f684cd6bfcc29d1e5da67,0906-c7df6e7c-dbee-4ad8-9dc4-146e043ac321,Prolific,trial_end,1680297301711.0,443373.0,"[{'x': 4, 'y': 0, 'width': 2, 'height': 1}, {'x': 6, 'y': 0, 'width': 1, 'height': 2}, {'x': 6, 'y': 2, 'width': 2, 'height': 1}, {'x': 6, 'y': 3, 'width': 1, 'height': 2}, {'x': 6, 'y': 5, 'width': 2, 'height': 1}, {'x': 5, 'y': 1, 'width': 1, 'height': 2}, {'x': 4, 'y': 3, 'width': 2, 'height': 1}, {'x': 4, 'y': 4, 'width': 1, 'height': 2}]","[[True, True, True, True, True, True, True, True, True, True], [True, True, True, True, True, True, True, True, True, True], [True, True, True, True, True, True, True, True, True, True], [True, True, True, True, True, True, True, True, True, True], [False, True, True, False, False, False, True, True, True, True], [False, False, False, False, True, True, True, True, True, True], [False, False, False, False, False, False, True, True, True, True], [True, True, False, True, True, False, True, True, True, True], [True, True, True, True, True, True, True, True, True, True], [True, True, True, True, True, True, True, True, True, True], [True, True, True, True, True, True, True, True, True, True], [True, True, True, True, True, True, True, True, True, True]]",trial_end,perfect-reconstruction-translation,44770.0,1.0,0.0,,,,,
66,64274d69e158fd5aa124388b,1680297306424.0,1680297321471.0,view,"{'blocks': [{'x': 0, 'y': 0, 'height': 1, 'width': 2}, {'x': 0, 'y': 1, 'height': 2, 'width': 1}, {'x': 0, 'y': 3, 'height': 1, 'width': 2}, {'x': 1, 'y': 4, 'height': 2, 'width': 1}, {'x': 2, 'y': 0, 'height': 1, 'width': 2}, {'x': 3, 'y': 1, 'height': 2, 'width': 1}, {'x': 2, 'y': 3, 'height': 1, 'width': 2}, {'x': 3, 'y': 4, 'height': 2, 'width': 1}]}",,5,0000000000000000010100000101000011110000100100001001000011110000,talls_100_097,tall_100,wide_013,tall_097,wide_006,talls_100_097,talls_100_097,block-tower-viewing,7,463273,0.0-7.0,block_construction_build_components,build_components_build_recall_prolific_pilot_6_towers_2_rep,5e5f684cd6bfcc29d1e5da67,0906-c7df6e7c-dbee-4ad8-9dc4-146e043ac321,Prolific,trial_end,,,,,,,,,,,,,,
67,64274d74e158fd5aa124389e,1680297267442.0,,build,"{'blocks': [{'x': 0, 'y': 0, 'height': 1, 'width': 2}, {'x': 0, 'y': 1, 'height': 2, 'width': 1}, {'x': 0, 'y': 3, 'height': 1, 'width': 2}, {'x': 1, 'y': 4, 'height': 2, 'width': 1}, {'x': 2, 'y': 0, 'height': 1, 'width': 2}, {'x': 3, 'y': 1, 'height': 2, 'width': 1}, {'x': 2, 'y': 3, 'height': 1, 'width': 2}, {'x': 3, 'y': 4, 'height': 2, 'width': 1}]}",,23,0000000000000000010100000101000011110000100100001001000011110000,talls_100_097,tall_100,wide_013,tall_097,wide_006,talls_100_097,talls_100_097,block-tower-building-undo,13,519991,0.0-13.0,block_construction_build_components,build_components_build_recall_prolific_pilot_6_towers_2_rep,63e51bec3af1cc5baf0c726a,6806-1b0c1fdb-1f6a-435c-8953-e906215530ab,Prolific,trial_end,1680297305911.0,516498.0,"[{'x': 7, 'y': 0, 'width': 2, 'height': 1}, {'x': 5, 'y': 0, 'width': 2, 'height': 1}, {'x': 5, 'y': 1, 'width': 1, 'height': 2}, {'x': 8, 'y': 1, 'width': 1, 'height': 2}, {'x': 5, 'y': 3, 'width': 2, 'height': 1}, {'x': 7, 'y': 3, 'width': 2, 'height': 1}, {'x': 6, 'y': 4, 'width': 1, 'height': 2}, {'x': 8, 'y': 4, 'width': 1, 'height': 2}]","[[True, True, True, True, True, True, True, True, True, True], [True, True, True, True, True, True, True, True, True, True], [True, True, True, True, True, True, True, True, True, True], [True, True, True, True, True, True, True, True, True, True], [True, True, True, True, True, True, True, True, True, True], [False, False, False, False, True, True, True, True, True, True], [False, True, True, False, False, False, True, True, True, True], [False, True, True, False, True, True, True, True, True, True], [False, False, False, False, False, False, True, True, True, True], [True, True, True, True, True, True, True, True, True, True], [True, True, True, True, True, True, True, True, True, True], [True, True, True, True, True, True, True, True, True, True]]",trial_end,perfect-reconstruction-translation,38472.0,2.0,0.0,,,,,
68,64274d7ae158fd5aa12438ac,1680297323173.0,1680297338223.0,view,"{'blocks': [{'x': 0, 'y': 0, 'height': 1, 'width': 2}, {'x': 0, 'y': 1, 'height': 2, 'width': 1}, {'x': 0, 'y': 3, 'height': 1, 'width': 2}, {'x': 0, 'y': 4, 'height': 2, 'width': 1}, {'x': 2, 'y': 0, 'height': 1, 'width': 2}, {'x': 3, 'y': 1, 'height': 2, 'width': 1}, {'x': 2, 'y': 3, 'height': 1, 'width': 2}, {'x': 2, 'y': 4, 'height': 2, 'width': 1}]}",,6,0000000000000000101000001010000011110000100100001001000011110000,talls_114_111,tall_114,wide_013,tall_111,wide_014,talls_114_111,talls_114_111,block-tower-viewing,8,480022,0.0-8.0,block_construction_build_components,build_components_build_recall_prolific_pilot_6_towers_2_rep,5e5f684cd6bfcc29d1e5da67,0906-c7df6e7c-dbee-4ad8-9dc4-146e043ac321,Prolific,trial_end,,,,,,,,,,,,,,
69,64274d86e158fd5aa12438c4,1680297296531.0,,build,"{'blocks': [{'x': 0, 'y': 0, 'height': 2, 'width': 1}, {'x': 0, 'y': 2, 'height': 1, 'width': 2}, {'x': 0, 'y': 3, 'height': 2, 'width': 1}, {'x': 0, 'y': 5, 'height': 1, 'width': 2}, {'x': 2, 'y': 0, 'height': 1, 'width': 2}, {'x': 2, 'y': 1, 'height': 2, 'width': 1}, {'x': 2, 'y': 3, 'height': 2, 'width': 1}, {'x': 2, 'y': 5, 'height': 1, 'width': 2}]}",,7,0000000000000000111100001010000010100000111000001010000010110000,talls_127_125,tall_127,wide_020,tall_125,wide_025,talls_127_125,talls_127_125,block-tower-building-undo,9,511622,0.0-9.0,block_construction_build_components,build_components_build_recall_prolific_pilot_6_towers_2_rep,5b1ba337c9d3cb00011030ca,7773-1b67ae19-c0ba-4173-916f-6905b72c894c,Prolific,trial_end,1680297346661.0,508238.0,"[{'x': 3, 'y': 0, 'width': 1, 'height': 2}, {'x': 3, 'y': 2, 'width': 2, 'height': 1}, {'x': 3, 'y': 3, 'width': 1, 'height': 2}, {'x': 3, 'y': 5, 'width': 2, 'height': 1}, {'x': 5, 'y': 0, 'width': 2, 'height': 1}, {'x': 5, 'y': 1, 'width': 1, 'height': 2}, {'x': 5, 'y': 3, 'width': 1, 'height': 2}, {'x': 5, 'y': 5, 'width': 2, 'height': 1}]","[[True, True, True, True, True, True, True, True, True, True], [True, True, True, True, True, True, True, True, True, True], [True, True, True, True, True, True, True, True, True, True], [False, False, False, False, False, False, True, True, True, True], [True, True, False, True, True, False, True, True, True, True], [False, False, False, False, False, False, True, True, True, True], [False, True, True, True, True, False, True, True, True, True], [True, True, True, True, True, True, True, True, True, True], [True, True, True, True, True, True, True, True, True, True], [True, True, True, True, True, True, True, True, True, True], [True, True, True, True, True, True, True, True, True, True], [True, True, True, True, True, True, True, True, True, True]]",trial_end,perfect-reconstruction-translation,50132.0,2.0,0.0,,,,,
70,64274d97e158fd5aa12438de,1680297351453.0,1680297366527.0,view,"{'blocks': [{'x': 0, 'y': 0, 'height': 1, 'width': 2}, {'x': 1, 'y': 1, 'height': 2, 'width': 1}, {'x': 0, 'y': 3, 'height': 1, 'width': 2}, {'x': 0, 'y': 4, 'height': 2, 'width': 1}, {'x': 2, 'y': 0, 'height': 2, 'width': 1}, {'x': 2, 'y': 2, 'height': 1, 'width': 2}, {'x': 2, 'y': 3, 'height': 2, 'width': 1}, {'x': 2, 'y': 5, 'height': 1, 'width': 2}]}",,8,0000000000000000101100001010000011100000011100000110000011100000,talls_111_127,tall_111,wide_011,tall_127,wide_015,talls_111_127,talls_111_127,block-tower-viewing,10,528457,0.0-10.0,block_construction_build_components,build_components_build_recall_prolific_pilot_6_towers_2_rep,5b1ba337c9d3cb00011030ca,7773-1b67ae19-c0ba-4173-916f-6905b72c894c,Prolific,trial_end,,,,,,,,,,,,,,
71,64274da1e158fd5aa12438ec,1680297339909.0,,build,"{'blocks': [{'x': 1, 'y': 0, 'height': 2, 'width': 1}, {'x': 0, 'y': 2, 'height': 1, 'width': 2}, {'x': 1, 'y': 3, 'height': 2, 'width': 1}, {'x': 0, 'y': 5, 'height': 1, 'width': 2}, {'x': 3, 'y': 0, 'height': 2, 'width': 1}, {'x': 2, 'y': 2, 'height': 1, 'width': 2}, {'x': 2, 'y': 3, 'height': 1, 'width': 2}, {'x': 3, 'y': 4, 'height': 2, 'width': 1}]}",,7,0000000000000000110100000101000001110000111100000101000001010000,talls_121_101,tall_121,wide_022,tall_101,wide_018,talls_121_101,talls_121_101,block-tower-building-undo,9,518997,0.0-9.0,block_construction_build_components,build_components_build_recall_prolific_pilot_6_towers_2_rep,5e5f684cd6bfcc29d1e5da67,0906-c7df6e7c-dbee-4ad8-9dc4-146e043ac321,Prolific,trial_end,1680297374156.0,515818.0,"[{'x': 4, 'y': 0, 'width': 1, 'height': 2}, {'x': 6, 'y': 0, 'width': 1, 'height': 2}, {'x': 3, 'y': 2, 'width': 2, 'height': 1}, {'x': 5, 'y': 2, 'width': 2, 'height': 1}, {'x': 5, 'y': 3, 'width': 2, 'height': 1}, {'x': 6, 'y': 4, 'width': 1, 'height': 2}, {'x': 4, 'y': 3, 'width': 1, 'height': 2}, {'x': 3, 'y': 5, 'width': 2, 'height': 1}]","[[True, True, True, True, True, True, True, True, True, True], [True, True, True, True, True, True, True, True, True, True], [True, True, True, True, True, True, True, True, True, True], [True, True, False, True, True, False, True, True, True, True], [False, False, False, False, False, False, True, True, True, True], [True, True, False, False, True, True, True, True, True, True], [False, False, False, False, False, False, True, True, True, True], [True, True, True, True, True, True, True, True, True, True], [True, True, True, True, True, True, True, True, True, True], [True, True, True, True, True, True, True, True, True, True], [True, True, True, True, True, True, True, True, True, True], [True, True, True, True, True, True, True, True, True, True]]",trial_end,perfect-reconstruction-translation,34248.0,2.0,0.0,,,,,
