,_id,trial_start_time,trial_finish_time,condition,stimulus,response,trial_num,block_str,tower_id,tower_A_tall_id,tower_A_wide_id,tower_B_tall_id,tower_B_wide_id,tower_id_tall,composite_id,trial_type,trial_index,time_elapsed,internal_node_id,experimentName,iterationName,workerID,gameID,studyLocation,datatype,response_key_dict,timeAbsolute,timeRelative,blocks,discreteWorld,eventType,endReason,relative_time,rep,n_resets,rt,novelty,response_meaning,response_correct,key_presses
0,637e7b77c178f27685c4f608,1669233513561.0,1669233528567.0,view,"{'blocks': [{'x': 1, 'y': 0, 'height': 2, 'width': 1}, {'x': 0, 'y': 2, 'height': 1, 'width': 2}, {'x': 0, 'y': 3, 'height': 1, 'width': 2}, {'x': 1, 'y': 4, 'height': 2, 'width': 1}, {'x': 2, 'y': 0, 'height': 1, 'width': 2}, {'x': 2, 'y': 1, 'height': 2, 'width': 1}, {'x': 2, 'y': 3, 'height': 1, 'width': 2}, {'x': 3, 'y': 4, 'height': 2, 'width': 1}]}",,1,0000000000000000010100000101000011110000111000000110000001110000,talls_101_100,tall_101,wide_019,tall_100,wide_006,talls_101_100,talls_101_100,block-tower-viewing,3,92538,0.0-3.0,block_construction_build_components,build_components_pilot_2,5eac84ff4efbe80ffd3962f1,5710-c7501bfa-6d81-4c46-8961-da27b7d03c45,Prolific,trial_end,"{'new': 'z', 'old': 'm'}",,,,,,,,,,,,,,
1,637e7b88c178f27685c4f60a,1669233530176.0,1669233545189.0,view,"{'blocks': [{'x': 0, 'y': 0, 'height': 1, 'width': 2}, {'x': 0, 'y': 1, 'height': 2, 'width': 1}, {'x': 0, 'y': 3, 'height': 1, 'width': 2}, {'x': 1, 'y': 4, 'height': 2, 'width': 1}, {'x': 2, 'y': 0, 'height': 1, 'width': 2}, {'x': 3, 'y': 1, 'height': 2, 'width': 1}, {'x': 2, 'y': 3, 'height': 1, 'width': 2}, {'x': 3, 'y': 4, 'height': 2, 'width': 1}]}",,2,0000000000000000010100000101000011110000100100001001000011110000,talls_100_097,tall_100,wide_013,tall_097,wide_006,talls_100_097,talls_100_097,block-tower-viewing,4,109159,0.0-4.0,block_construction_build_components,build_components_pilot_2,5eac84ff4efbe80ffd3962f1,5710-c7501bfa-6d81-4c46-8961-da27b7d03c45,Prolific,trial_end,"{'new': 'z', 'old': 'm'}",,,,,,,,,,,,,,
2,637e7b98c178f27685c4f60c,1669233546798.0,1669233561807.0,view,"{'blocks': [{'x': 0, 'y': 0, 'height': 1, 'width': 2}, {'x': 0, 'y': 1, 'height': 2, 'width': 1}, {'x': 0, 'y': 3, 'height': 1, 'width': 2}, {'x': 1, 'y': 4, 'height': 2, 'width': 1}, {'x': 2, 'y': 0, 'height': 1, 'width': 2}, {'x': 2, 'y': 1, 'height': 2, 'width': 1}, {'x': 2, 'y': 3, 'height': 2, 'width': 1}, {'x': 2, 'y': 5, 'height': 1, 'width': 2}]}",,3,0000000000000000011100000110000011100000101000001010000011110000,talls_100_125,tall_100,wide_014,tall_125,wide_011,talls_100_125,talls_100_125,block-tower-viewing,5,125777,0.0-5.0,block_construction_build_components,build_components_pilot_2,5eac84ff4efbe80ffd3962f1,5710-c7501bfa-6d81-4c46-8961-da27b7d03c45,Prolific,trial_end,"{'new': 'z', 'old': 'm'}",,,,,,,,,,,,,,
3,637e7bb3c178f27685c4f61c,1669233563419.0,,build,"{'blocks': [{'x': 1, 'y': 0, 'height': 2, 'width': 1}, {'x': 0, 'y': 2, 'height': 1, 'width': 2}, {'x': 1, 'y': 3, 'height': 2, 'width': 1}, {'x': 0, 'y': 5, 'height': 1, 'width': 2}, {'x': 2, 'y': 0, 'height': 1, 'width': 2}, {'x': 2, 'y': 1, 'height': 2, 'width': 1}, {'x': 2, 'y': 3, 'height': 1, 'width': 2}, {'x': 3, 'y': 4, 'height': 2, 'width': 1}]}",,4,0000000000000000110100000101000001110000111000000110000001110000,talls_121_100,tall_121,wide_019,tall_100,wide_018,talls_121_100,talls_121_100,block-tower-building,6,152010,0.0-6.0,block_construction_build_components,build_components_pilot_2,5eac84ff4efbe80ffd3962f1,5710-c7501bfa-6d81-4c46-8961-da27b7d03c45,Prolific,trial_end,"{'new': 'z', 'old': 'm'}",1669233585036.0,148832.0,"[{'x': 6, 'y': 0, 'width': 2, 'height': 1}, {'x': 5, 'y': 0, 'width': 1, 'height': 2}, {'x': 6, 'y': 1, 'width': 1, 'height': 2}, {'x': 4, 'y': 2, 'width': 2, 'height': 1}, {'x': 5, 'y': 3, 'width': 1, 'height': 2}, {'x': 4, 'y': 5, 'width': 2, 'height': 1}, {'x': 6, 'y': 3, 'width': 2, 'height': 1}, {'x': 7, 'y': 4, 'width': 1, 'height': 2}]","[[True, True, True, True, True, True, True, True, True, True], [True, True, True, True, True, True, True, True, True, True], [True, True, True, True, True, True, True, True, True, True], [True, True, True, True, True, True, True, True, True, True], [True, True, False, True, True, False, True, True, True, True], [False, False, False, False, False, False, True, True, True, True], [False, False, False, False, True, True, True, True, True, True], [False, True, True, False, False, False, True, True, True, True], [True, True, True, True, True, True, True, True, True, True], [True, True, True, True, True, True, True, True, True, True], [True, True, True, True, True, True, True, True, True, True], [True, True, True, True, True, True, True, True, True, True]]",trial_end,perfect-reconstruction-translation,21617.0,0.0,0.0,,,,,
4,637e7bc3c178f27685c4f61e,1669233589652.0,1669233604669.0,view,"{'blocks': [{'x': 0, 'y': 0, 'height': 2, 'width': 1}, {'x': 0, 'y': 2, 'height': 1, 'width': 2}, {'x': 0, 'y': 3, 'height': 1, 'width': 2}, {'x': 0, 'y': 4, 'height': 2, 'width': 1}, {'x': 2, 'y': 0, 'height': 1, 'width': 2}, {'x': 2, 'y': 1, 'height': 2, 'width': 1}, {'x': 2, 'y': 3, 'height': 1, 'width': 2}, {'x': 2, 'y': 4, 'height': 2, 'width': 1}]}",,5,0000000000000000101000001010000011110000111000001010000010110000,talls_116_114,tall_116,wide_020,tall_114,wide_014,talls_116_114,talls_116_114,block-tower-viewing,7,168655,0.0-7.0,block_construction_build_components,build_components_pilot_2,5eac84ff4efbe80ffd3962f1,5710-c7501bfa-6d81-4c46-8961-da27b7d03c45,Prolific,trial_end,"{'new': 'z', 'old': 'm'}",,,,,,,,,,,,,,
5,637e7be0c178f27685c4f630,1669233606302.0,,build,"{'blocks': [{'x': 1, 'y': 0, 'height': 2, 'width': 1}, {'x': 0, 'y': 2, 'height': 1, 'width': 2}, {'x': 1, 'y': 3, 'height': 2, 'width': 1}, {'x': 0, 'y': 5, 'height': 1, 'width': 2}, {'x': 2, 'y': 0, 'height': 1, 'width': 2}, {'x': 3, 'y': 1, 'height': 2, 'width': 1}, {'x': 3, 'y': 3, 'height': 2, 'width': 1}, {'x': 2, 'y': 5, 'height': 1, 'width': 2}]}",,6,0000000000000000111100000101000001010000110100000101000001110000,talls_121_118,tall_121,wide_018,tall_118,wide_022,talls_121_118,talls_121_118,block-tower-building,8,197619,0.0-8.0,block_construction_build_components,build_components_pilot_2,5eac84ff4efbe80ffd3962f1,5710-c7501bfa-6d81-4c46-8961-da27b7d03c45,Prolific,trial_end,"{'new': 'z', 'old': 'm'}",1669233630579.0,194375.0,"[{'x': 4, 'y': 0, 'width': 1, 'height': 2}, {'x': 3, 'y': 2, 'width': 2, 'height': 1}, {'x': 4, 'y': 3, 'width': 1, 'height': 2}, {'x': 3, 'y': 5, 'width': 2, 'height': 1}, {'x': 5, 'y': 0, 'width': 2, 'height': 1}, {'x': 6, 'y': 1, 'width': 1, 'height': 2}, {'x': 6, 'y': 3, 'width': 1, 'height': 2}, {'x': 5, 'y': 5, 'width': 2, 'height': 1}]","[[True, True, True, True, True, True, True, True, True, True], [True, True, True, True, True, True, True, True, True, True], [True, True, True, True, True, True, True, True, True, True], [True, True, False, True, True, False, True, True, True, True], [False, False, False, False, False, False, True, True, True, True], [False, True, True, True, True, False, True, True, True, True], [False, False, False, False, False, False, True, True, True, True], [True, True, True, True, True, True, True, True, True, True], [True, True, True, True, True, True, True, True, True, True], [True, True, True, True, True, True, True, True, True, True], [True, True, True, True, True, True, True, True, True, True], [True, True, True, True, True, True, True, True, True, True]]",trial_end,perfect-reconstruction-translation,24277.0,0.0,1.0,,,,,
6,637e7bf1c178f27685c4f633,1669233635273.0,1669233650285.0,view,"{'blocks': [{'x': 0, 'y': 0, 'height': 1, 'width': 2}, {'x': 1, 'y': 1, 'height': 2, 'width': 1}, {'x': 0, 'y': 3, 'height': 1, 'width': 2}, {'x': 0, 'y': 4, 'height': 2, 'width': 1}, {'x': 2, 'y': 0, 'height': 2, 'width': 1}, {'x': 2, 'y': 2, 'height': 1, 'width': 2}, {'x': 2, 'y': 3, 'height': 2, 'width': 1}, {'x': 2, 'y': 5, 'height': 1, 'width': 2}]}",,7,0000000000000000101100001010000011100000011100000110000011100000,talls_111_127,tall_111,wide_011,tall_127,wide_015,talls_111_127,talls_111_127,block-tower-viewing,9,214291,0.0-9.0,block_construction_build_components,build_components_pilot_2,5eac84ff4efbe80ffd3962f1,5710-c7501bfa-6d81-4c46-8961-da27b7d03c45,Prolific,trial_end,"{'new': 'z', 'old': 'm'}",,,,,,,,,,,,,,
7,637e7c06c178f27685c4f641,1669233651948.0,,build,"{'blocks': [{'x': 0, 'y': 0, 'height': 1, 'width': 2}, {'x': 1, 'y': 1, 'height': 2, 'width': 1}, {'x': 0, 'y': 3, 'height': 1, 'width': 2}, {'x': 1, 'y': 4, 'height': 2, 'width': 1}, {'x': 2, 'y': 0, 'height': 1, 'width': 2}, {'x': 3, 'y': 1, 'height': 2, 'width': 1}, {'x': 3, 'y': 3, 'height': 2, 'width': 1}, {'x': 2, 'y': 5, 'height': 1, 'width': 2}]}",,8,0000000000000000011100000101000011010000010100000101000011110000,talls_097_118,tall_097,wide_006,tall_118,wide_010,talls_097_118,talls_097_118,block-tower-building,10,235527,0.0-10.0,block_construction_build_components,build_components_pilot_2,5eac84ff4efbe80ffd3962f1,5710-c7501bfa-6d81-4c46-8961-da27b7d03c45,Prolific,trial_end,"{'new': 'z', 'old': 'm'}",1669233668309.0,232105.0,"[{'x': 3, 'y': 0, 'width': 2, 'height': 1}, {'x': 5, 'y': 0, 'width': 2, 'height': 1}, {'x': 4, 'y': 1, 'width': 1, 'height': 2}, {'x': 3, 'y': 3, 'width': 2, 'height': 1}, {'x': 4, 'y': 4, 'width': 1, 'height': 2}, {'x': 6, 'y': 1, 'width': 1, 'height': 2}, {'x': 6, 'y': 3, 'width': 1, 'height': 2}, {'x': 5, 'y': 5, 'width': 2, 'height': 1}]","[[True, True, True, True, True, True, True, True, True, True], [True, True, True, True, True, True, True, True, True, True], [True, True, True, True, True, True, True, True, True, True], [False, True, True, False, True, True, True, True, True, True], [False, False, False, False, False, False, True, True, True, True], [False, True, True, True, True, False, True, True, True, True], [False, False, False, False, False, False, True, True, True, True], [True, True, True, True, True, True, True, True, True, True], [True, True, True, True, True, True, True, True, True, True], [True, True, True, True, True, True, True, True, True, True], [True, True, True, True, True, True, True, True, True, True], [True, True, True, True, True, True, True, True, True, True]]",trial_end,perfect-reconstruction-translation,16361.0,0.0,0.0,,,,,
8,637e7c29c178f27685c4f658,1669233673358.0,,build,"{'blocks': [{'x': 0, 'y': 0, 'height': 2, 'width': 1}, {'x': 0, 'y': 2, 'height': 1, 'width': 2}, {'x': 0, 'y': 3, 'height': 1, 'width': 2}, {'x': 1, 'y': 4, 'height': 2, 'width': 1}, {'x': 2, 'y': 0, 'height': 2, 'width': 1}, {'x': 2, 'y': 2, 'height': 1, 'width': 2}, {'x': 2, 'y': 3, 'height': 2, 'width': 1}, {'x': 2, 'y': 5, 'height': 1, 'width': 2}]}",,9,0000000000000000011100000110000011100000111100001010000010100000,talls_102_127,tall_102,wide_025,tall_127,wide_011,talls_102_127,talls_102_127,block-tower-building,11,270548,0.0-11.0,block_construction_build_components,build_components_pilot_2,5eac84ff4efbe80ffd3962f1,5710-c7501bfa-6d81-4c46-8961-da27b7d03c45,Prolific,trial_end,"{'new': 'z', 'old': 'm'}",1669233703511.0,267307.0,"[{'x': 4, 'y': 0, 'width': 1, 'height': 2}, {'x': 6, 'y': 0, 'width': 1, 'height': 2}, {'x': 6, 'y': 2, 'width': 2, 'height': 1}, {'x': 4, 'y': 2, 'width': 2, 'height': 1}, {'x': 4, 'y': 3, 'width': 2, 'height': 1}, {'x': 5, 'y': 4, 'width': 1, 'height': 2}, {'x': 6, 'y': 3, 'width': 1, 'height': 2}, {'x': 6, 'y': 5, 'width': 2, 'height': 1}]","[[True, True, True, True, True, True, True, True, True, True], [True, True, True, True, True, True, True, True, True, True], [True, True, True, True, True, True, True, True, True, True], [True, True, True, True, True, True, True, True, True, True], [False, False, False, False, True, True, True, True, True, True], [True, True, False, False, False, False, True, True, True, True], [False, False, False, False, False, False, True, True, True, True], [True, True, False, True, True, False, True, True, True, True], [True, True, True, True, True, True, True, True, True, True], [True, True, True, True, True, True, True, True, True, True], [True, True, True, True, True, True, True, True, True, True], [True, True, True, True, True, True, True, True, True, True]]",trial_end,perfect-reconstruction-translation,30153.0,0.0,1.0,,,,,
9,637e7c3ac178f27685c4f65e,1669233708212.0,1669233723278.0,view,"{'blocks': [{'x': 0, 'y': 0, 'height': 1, 'width': 2}, {'x': 0, 'y': 1, 'height': 2, 'width': 1}, {'x': 0, 'y': 3, 'height': 1, 'width': 2}, {'x': 0, 'y': 4, 'height': 2, 'width': 1}, {'x': 2, 'y': 0, 'height': 1, 'width': 2}, {'x': 3, 'y': 1, 'height': 2, 'width': 1}, {'x': 2, 'y': 3, 'height': 1, 'width': 2}, {'x': 2, 'y': 4, 'height': 2, 'width': 1}]}",,10,0000000000000000101000001010000011110000100100001001000011110000,talls_114_111,tall_114,wide_013,tall_111,wide_014,talls_114_111,talls_114_111,block-tower-viewing,12,287298,0.0-12.0,block_construction_build_components,build_components_pilot_2,5eac84ff4efbe80ffd3962f1,5710-c7501bfa-6d81-4c46-8961-da27b7d03c45,Prolific,trial_end,"{'new': 'z', 'old': 'm'}",,,,,,,,,,,,,,
10,637e7c40c178f27685c4f666,1669233705133.0,1669233720178.0,view,"{'blocks': [{'x': 0, 'y': 0, 'height': 2, 'width': 1}, {'x': 0, 'y': 2, 'height': 1, 'width': 2}, {'x': 0, 'y': 3, 'height': 2, 'width': 1}, {'x': 0, 'y': 5, 'height': 1, 'width': 2}, {'x': 2, 'y': 0, 'height': 1, 'width': 2}, {'x': 2, 'y': 1, 'height': 2, 'width': 1}, {'x': 2, 'y': 3, 'height': 2, 'width': 1}, {'x': 2, 'y': 5, 'height': 1, 'width': 2}]}",,1,0000000000000000111100001010000010100000111000001010000010110000,talls_127_125,tall_127,wide_020,tall_125,wide_025,talls_127_125,talls_127_125,block-tower-viewing,3,168812,0.0-3.0,block_construction_build_components,build_components_pilot_2,60425a37f2994f0e28bf29da,0953-ddcb856a-a699-47a3-8f7d-700ee645c217,Prolific,trial_end,"{'new': 'm', 'old': 'z'}",,,,,,,,,,,,,,
11,637e7c4fc178f27685c4f67d,1669233724979.0,,build,"{'blocks': [{'x': 0, 'y': 0, 'height': 2, 'width': 1}, {'x': 0, 'y': 2, 'height': 1, 'width': 2}, {'x': 0, 'y': 3, 'height': 2, 'width': 1}, {'x': 0, 'y': 5, 'height': 1, 'width': 2}, {'x': 2, 'y': 0, 'height': 1, 'width': 2}, {'x': 2, 'y': 1, 'height': 2, 'width': 1}, {'x': 2, 'y': 3, 'height': 2, 'width': 1}, {'x': 2, 'y': 5, 'height': 1, 'width': 2}]}",,11,0000000000000000111100001010000010100000111000001010000010110000,talls_127_125,tall_127,wide_020,tall_125,wide_025,talls_127_125,talls_127_125,block-tower-building,13,308527,0.0-13.0,block_construction_build_components,build_components_pilot_2,5eac84ff4efbe80ffd3962f1,5710-c7501bfa-6d81-4c46-8961-da27b7d03c45,Prolific,trial_end,"{'new': 'z', 'old': 'm'}",1669233740840.0,304636.0,"[{'x': 4, 'y': 0, 'width': 1, 'height': 2}, {'x': 6, 'y': 0, 'width': 2, 'height': 1}, {'x': 6, 'y': 1, 'width': 1, 'height': 2}, {'x': 4, 'y': 2, 'width': 2, 'height': 1}, {'x': 4, 'y': 3, 'width': 1, 'height': 2}, {'x': 6, 'y': 3, 'width': 1, 'height': 2}, {'x': 4, 'y': 5, 'width': 2, 'height': 1}, {'x': 6, 'y': 5, 'width': 2, 'height': 1}]","[[True, True, True, True, True, True, True, True, True, True], [True, True, True, True, True, True, True, True, True, True], [True, True, True, True, True, True, True, True, True, True], [True, True, True, True, True, True, True, True, True, True], [False, False, False, False, False, False, True, True, True, True], [True, True, False, True, True, False, True, True, True, True], [False, False, False, False, False, False, True, True, True, True], [False, True, True, True, True, False, True, True, True, True], [True, True, True, True, True, True, True, True, True, True], [True, True, True, True, True, True, True, True, True, True], [True, True, True, True, True, True, True, True, True, True], [True, True, True, True, True, True, True, True, True, True]]",trial_end,perfect-reconstruction-translation,15861.0,0.0,0.0,,,,,
12,637e7c51c178f27685c4f67f,1669233566641.0,,build,"{'blocks': [{'x': 1, 'y': 0, 'height': 2, 'width': 1}, {'x': 0, 'y': 2, 'height': 1, 'width': 2}, {'x': 1, 'y': 3, 'height': 2, 'width': 1}, {'x': 0, 'y': 5, 'height': 1, 'width': 2}, {'x': 2, 'y': 0, 'height': 1, 'width': 2}, {'x': 2, 'y': 1, 'height': 2, 'width': 1}, {'x': 2, 'y': 3, 'height': 1, 'width': 2}, {'x': 3, 'y': 4, 'height': 2, 'width': 1}]}",,1,0000000000000000110100000101000001110000111000000110000001110000,talls_121_100,tall_121,wide_019,tall_100,wide_018,talls_121_100,talls_121_100,block-tower-building,3,236044,0.0-3.0,block_construction_build_components,build_components_pilot_2,5e7ca836a60b642ec70880b1,2329-4176a153-b15a-4d39-a8e0-1744da902629,Prolific,trial_end,"{'new': 'z', 'old': 'm'}",1669233741145.0,232994.0,"[{'x': 5, 'y': 0, 'width': 2, 'height': 1}, {'x': 4, 'y': 0, 'width': 1, 'height': 2}, {'x': 3, 'y': 2, 'width': 2, 'height': 1}, {'x': 4, 'y': 3, 'width': 1, 'height': 2}, {'x': 3, 'y': 5, 'width': 2, 'height': 1}, {'x': 5, 'y': 1, 'width': 1, 'height': 2}, {'x': 5, 'y': 3, 'width': 2, 'height': 1}, {'x': 6, 'y': 4, 'width': 1, 'height': 2}]","[[True, True, True, True, True, True, True, True, True, True], [True, True, True, True, True, True, True, True, True, True], [True, True, True, True, True, True, True, True, True, True], [True, True, False, True, True, False, True, True, True, True], [False, False, False, False, False, False, True, True, True, True], [False, False, False, False, True, True, True, True, True, True], [False, True, True, False, False, False, True, True, True, True], [True, True, True, True, True, True, True, True, True, True], [True, True, True, True, True, True, True, True, True, True], [True, True, True, True, True, True, True, True, True, True], [True, True, True, True, True, True, True, True, True, True], [True, True, True, True, True, True, True, True, True, True]]",trial_end,perfect-reconstruction-translation,174505.0,0.0,4.0,,,,,
13,637e7c52c178f27685c4f680,1669233667707.0,,build,"{'blocks': [{'x': 1, 'y': 0, 'height': 2, 'width': 1}, {'x': 0, 'y': 2, 'height': 1, 'width': 2}, {'x': 0, 'y': 3, 'height': 1, 'width': 2}, {'x': 1, 'y': 4, 'height': 2, 'width': 1}, {'x': 2, 'y': 0, 'height': 1, 'width': 2}, {'x': 2, 'y': 1, 'height': 2, 'width': 1}, {'x': 2, 'y': 3, 'height': 1, 'width': 2}, {'x': 3, 'y': 4, 'height': 2, 'width': 1}]}",,1,0000000000000000010100000101000011110000111000000110000001110000,talls_101_100,tall_101,wide_019,tall_100,wide_006,talls_101_100,talls_101_100,block-tower-building,3,415225,0.0-3.0,block_construction_build_components,build_components_pilot_2,5ea980e8a5e7d908472c2fb0,9967-0409bbad-ac1c-46a8-8b0b-9f9a0deff968,Prolific,trial_end,"{'new': 'z', 'old': 'm'}",1669233740660.0,412236.0,"[{'x': 6, 'y': 0, 'width': 2, 'height': 1}, {'x': 5, 'y': 0, 'width': 1, 'height': 2}, {'x': 4, 'y': 2, 'width': 2, 'height': 1}, {'x': 4, 'y': 3, 'width': 2, 'height': 1}, {'x': 5, 'y': 4, 'width': 1, 'height': 2}, {'x': 6, 'y': 1, 'width': 1, 'height': 2}, {'x': 6, 'y': 3, 'width': 2, 'height': 1}, {'x': 7, 'y': 4, 'width': 1, 'height': 2}]","[[True, True, True, True, True, True, True, True, True, True], [True, True, True, True, True, True, True, True, True, True], [True, True, True, True, True, True, True, True, True, True], [True, True, True, True, True, True, True, True, True, True], [True, True, False, False, True, True, True, True, True, True], [False, False, False, False, False, False, True, True, True, True], [False, False, False, False, True, True, True, True, True, True], [False, True, True, False, False, False, True, True, True, True], [True, True, True, True, True, True, True, True, True, True], [True, True, True, True, True, True, True, True, True, True], [True, True, True, True, True, True, True, True, True, True], [True, True, True, True, True, True, True, True, True, True]]",trial_end,perfect-reconstruction-translation,72953.0,0.0,1.0,,,,,
14,637e7c62c178f27685c4f691,1669233745883.0,1669233760952.0,view,"{'blocks': [{'x': 0, 'y': 0, 'height': 1, 'width': 2}, {'x': 1, 'y': 1, 'height': 2, 'width': 1}, {'x': 1, 'y': 3, 'height': 2, 'width': 1}, {'x': 0, 'y': 5, 'height': 1, 'width': 2}, {'x': 2, 'y': 0, 'height': 1, 'width': 2}, {'x': 2, 'y': 1, 'height': 2, 'width': 1}, {'x': 2, 'y': 3, 'height': 1, 'width': 2}, {'x': 2, 'y': 4, 'height': 2, 'width': 1}]}",,2,0000000000000000111000000110000001110000011000000110000011110000,talls_118_114,tall_118,wide_008,tall_114,wide_019,talls_118_114,talls_118_114,block-tower-viewing,4,252803,0.0-4.0,block_construction_build_components,build_components_pilot_2,5e7ca836a60b642ec70880b1,2329-4176a153-b15a-4d39-a8e0-1744da902629,Prolific,trial_end,"{'new': 'z', 'old': 'm'}",,,,,,,,,,,,,,
15,637e7c62c178f27685c4f692,1669233746723.0,,build,"{'blocks': [{'x': 0, 'y': 0, 'height': 1, 'width': 2}, {'x': 1, 'y': 1, 'height': 2, 'width': 1}, {'x': 1, 'y': 3, 'height': 2, 'width': 1}, {'x': 0, 'y': 5, 'height': 1, 'width': 2}, {'x': 3, 'y': 0, 'height': 2, 'width': 1}, {'x': 2, 'y': 2, 'height': 1, 'width': 2}, {'x': 3, 'y': 3, 'height': 2, 'width': 1}, {'x': 2, 'y': 5, 'height': 1, 'width': 2}]}",,12,0000000000000000111100000101000001010000011100000101000011010000,talls_118_121,tall_118,wide_010,tall_121,wide_022,talls_118_121,talls_118_121,block-tower-building,14,327702,0.0-14.0,block_construction_build_components,build_components_pilot_2,5eac84ff4efbe80ffd3962f1,5710-c7501bfa-6d81-4c46-8961-da27b7d03c45,Prolific,trial_end,"{'new': 'z', 'old': 'm'}",1669233760694.0,324490.0,"[{'x': 4, 'y': 0, 'width': 2, 'height': 1}, {'x': 7, 'y': 0, 'width': 1, 'height': 2}, {'x': 5, 'y': 1, 'width': 1, 'height': 2}, {'x': 6, 'y': 2, 'width': 2, 'height': 1}, {'x': 5, 'y': 3, 'width': 1, 'height': 2}, {'x': 7, 'y': 3, 'width': 1, 'height': 2}, {'x': 6, 'y': 5, 'width': 2, 'height': 1}, {'x': 4, 'y': 5, 'width': 2, 'height': 1}]","[[True, True, True, True, True, True, True, True, True, True], [True, True, True, True, True, True, True, True, True, True], [True, True, True, True, True, True, True, True, True, True], [True, True, True, True, True, True, True, True, True, True], [False, True, True, True, True, False, True, True, True, True], [False, False, False, False, False, False, True, True, True, True], [True, True, False, True, True, False, True, True, True, True], [False, False, False, False, False, False, True, True, True, True], [True, True, True, True, True, True, True, True, True, True], [True, True, True, True, True, True, True, True, True, True], [True, True, True, True, True, True, True, True, True, True], [True, True, True, True, True, True, True, True, True, True]]",trial_end,perfect-reconstruction-translation,13971.0,0.0,0.0,,,,,
16,637e7c72c178f27685c4f697,1669233762659.0,1669233777731.0,view,"{'blocks': [{'x': 0, 'y': 0, 'height': 1, 'width': 2}, {'x': 0, 'y': 1, 'height': 2, 'width': 1}, {'x': 0, 'y': 3, 'height': 1, 'width': 2}, {'x': 0, 'y': 4, 'height': 2, 'width': 1}, {'x': 2, 'y': 0, 'height': 1, 'width': 2}, {'x': 3, 'y': 1, 'height': 2, 'width': 1}, {'x': 2, 'y': 3, 'height': 1, 'width': 2}, {'x': 2, 'y': 4, 'height': 2, 'width': 1}]}",,3,0000000000000000101000001010000011110000100100001001000011110000,talls_114_111,tall_114,wide_013,tall_111,wide_014,talls_114_111,talls_114_111,block-tower-viewing,5,269591,0.0-5.0,block_construction_build_components,build_components_pilot_2,5e7ca836a60b642ec70880b1,2329-4176a153-b15a-4d39-a8e0-1744da902629,Prolific,trial_end,"{'new': 'z', 'old': 'm'}",,,,,,,,,,,,,,
17,637e7c93c178f27685c4f6af,1669233779441.0,,build,"{'blocks': [{'x': 0, 'y': 0, 'height': 2, 'width': 1}, {'x': 0, 'y': 2, 'height': 1, 'width': 2}, {'x': 0, 'y': 3, 'height': 1, 'width': 2}, {'x': 1, 'y': 4, 'height': 2, 'width': 1}, {'x': 2, 'y': 0, 'height': 2, 'width': 1}, {'x': 2, 'y': 2, 'height': 1, 'width': 2}, {'x': 2, 'y': 3, 'height': 2, 'width': 1}, {'x': 2, 'y': 5, 'height': 1, 'width': 2}]}",,4,0000000000000000011100000110000011100000111100001010000010100000,talls_102_127,tall_102,wide_025,tall_127,wide_011,talls_102_127,talls_102_127,block-tower-building,6,301785,0.0-6.0,block_construction_build_components,build_components_pilot_2,5e7ca836a60b642ec70880b1,2329-4176a153-b15a-4d39-a8e0-1744da902629,Prolific,trial_end,"{'new': 'z', 'old': 'm'}",1669233806783.0,298632.0,"[{'x': 4, 'y': 0, 'width': 1, 'height': 2}, {'x': 6, 'y': 0, 'width': 1, 'height': 2}, {'x': 6, 'y': 2, 'width': 2, 'height': 1}, {'x': 4, 'y': 2, 'width': 2, 'height': 1}, {'x': 4, 'y': 3, 'width': 2, 'height': 1}, {'x': 6, 'y': 3, 'width': 1, 'height': 2}, {'x': 5, 'y': 4, 'width': 1, 'height': 2}, {'x': 6, 'y': 5, 'width': 2, 'height': 1}]","[[True, True, True, True, True, True, True, True, True, True], [True, True, True, True, True, True, True, True, True, True], [True, True, True, True, True, True, True, True, True, True], [True, True, True, True, True, True, True, True, True, True], [False, False, False, False, True, True, True, True, True, True], [True, True, False, False, False, False, True, True, True, True], [False, False, False, False, False, False, True, True, True, True], [True, True, False, True, True, False, True, True, True, True], [True, True, True, True, True, True, True, True, True, True], [True, True, True, True, True, True, True, True, True, True], [True, True, True, True, True, True, True, True, True, True], [True, True, True, True, True, True, True, True, True, True]]",trial_end,perfect-reconstruction-translation,27342.0,0.0,0.0,,,,,
18,637e7cb1c178f27685c4f6c4,1669233745377.0,,build,"{'blocks': [{'x': 0, 'y': 0, 'height': 2, 'width': 1}, {'x': 0, 'y': 2, 'height': 1, 'width': 2}, {'x': 0, 'y': 3, 'height': 1, 'width': 2}, {'x': 1, 'y': 4, 'height': 2, 'width': 1}, {'x': 3, 'y': 0, 'height': 2, 'width': 1}, {'x': 2, 'y': 2, 'height': 1, 'width': 2}, {'x': 2, 'y': 3, 'height': 2, 'width': 1}, {'x': 2, 'y': 5, 'height': 1, 'width': 2}]}",,2,0000000000000000011100000110000011100000111100001001000010010000,talls_102_126,tall_102,wide_024,tall_126,wide_011,talls_102_126,talls_102_126,block-tower-building,4,509808,0.0-4.0,block_construction_build_components,build_components_pilot_2,5ea980e8a5e7d908472c2fb0,9967-0409bbad-ac1c-46a8-8b0b-9f9a0deff968,Prolific,trial_end,"{'new': 'z', 'old': 'm'}",1669233835220.0,506796.0,"[{'x': 4, 'y': 0, 'width': 1, 'height': 2}, {'x': 7, 'y': 0, 'width': 1, 'height': 2}, {'x': 6, 'y': 2, 'width': 2, 'height': 1}, {'x': 4, 'y': 2, 'width': 2, 'height': 1}, {'x': 4, 'y': 3, 'width': 2, 'height': 1}, {'x': 6, 'y': 3, 'width': 1, 'height': 2}, {'x': 6, 'y': 5, 'width': 2, 'height': 1}, {'x': 5, 'y': 4, 'width': 1, 'height': 2}]","[[True, True, True, True, True, True, True, True, True, True], [True, True, True, True, True, True, True, True, True, True], [True, True, True, True, True, True, True, True, True, True], [True, True, True, True, True, True, True, True, True, True], [False, False, False, False, True, True, True, True, True, True], [True, True, False, False, False, False, True, True, True, True], [True, True, False, False, False, False, True, True, True, True], [False, False, False, True, True, False, True, True, True, True], [True, True, True, True, True, True, True, True, True, True], [True, True, True, True, True, True, True, True, True, True], [True, True, True, True, True, True, True, True, True, True], [True, True, True, True, True, True, True, True, True, True]]",trial_end,perfect-reconstruction-translation,89843.0,0.0,1.0,,,,,
19,637e7cb1c178f27685c4f6c5,1669233811654.0,,build,"{'blocks': [{'x': 0, 'y': 0, 'height': 1, 'width': 2}, {'x': 1, 'y': 1, 'height': 2, 'width': 1}, {'x': 1, 'y': 3, 'height': 2, 'width': 1}, {'x': 0, 'y': 5, 'height': 1, 'width': 2}, {'x': 3, 'y': 0, 'height': 2, 'width': 1}, {'x': 2, 'y': 2, 'height': 1, 'width': 2}, {'x': 3, 'y': 3, 'height': 2, 'width': 1}, {'x': 2, 'y': 5, 'height': 1, 'width': 2}]}",,5,0000000000000000111100000101000001010000011100000101000011010000,talls_118_121,tall_118,wide_010,tall_121,wide_022,talls_118_121,talls_118_121,block-tower-building,7,332661,0.0-7.0,block_construction_build_components,build_components_pilot_2,5e7ca836a60b642ec70880b1,2329-4176a153-b15a-4d39-a8e0-1744da902629,Prolific,trial_end,"{'new': 'z', 'old': 'm'}",1669233837246.0,329095.0,"[{'x': 4, 'y': 0, 'width': 2, 'height': 1}, {'x': 5, 'y': 1, 'width': 1, 'height': 2}, {'x': 7, 'y': 0, 'width': 1, 'height': 2}, {'x': 6, 'y': 2, 'width': 2, 'height': 1}, {'x': 7, 'y': 3, 'width': 1, 'height': 2}, {'x': 5, 'y': 3, 'width': 1, 'height': 2}, {'x': 6, 'y': 5, 'width': 2, 'height': 1}, {'x': 4, 'y': 5, 'width': 2, 'height': 1}]","[[True, True, True, True, True, True, True, True, True, True], [True, True, True, True, True, True, True, True, True, True], [True, True, True, True, True, True, True, True, True, True], [True, True, True, True, True, True, True, True, True, True], [False, True, True, True, True, False, True, True, True, True], [False, False, False, False, False, False, True, True, True, True], [True, True, False, True, True, False, True, True, True, True], [False, False, False, False, False, False, True, True, True, True], [True, True, True, True, True, True, True, True, True, True], [True, True, True, True, True, True, True, True, True, True], [True, True, True, True, True, True, True, True, True, True], [True, True, True, True, True, True, True, True, True, True]]",trial_end,perfect-reconstruction-translation,25593.0,0.0,0.0,,,,,
20,637e7cc2c178f27685c4f6cc,1669233839967.0,1669233855039.0,view,"{'blocks': [{'x': 0, 'y': 0, 'height': 1, 'width': 2}, {'x': 1, 'y': 1, 'height': 2, 'width': 1}, {'x': 0, 'y': 3, 'height': 1, 'width': 2}, {'x': 1, 'y': 4, 'height': 2, 'width': 1}, {'x': 2, 'y': 0, 'height': 1, 'width': 2}, {'x': 3, 'y': 1, 'height': 2, 'width': 1}, {'x': 3, 'y': 3, 'height': 2, 'width': 1}, {'x': 2, 'y': 5, 'height': 1, 'width': 2}]}",,3,0000000000000000011100000101000011010000010100000101000011110000,talls_097_118,tall_097,wide_006,tall_118,wide_010,talls_097_118,talls_097_118,block-tower-viewing,5,526582,0.0-5.0,block_construction_build_components,build_components_pilot_2,5ea980e8a5e7d908472c2fb0,9967-0409bbad-ac1c-46a8-8b0b-9f9a0deff968,Prolific,trial_end,"{'new': 'z', 'old': 'm'}",,,,,,,,,,,,,,
21,637e7cc3c178f27685c4f6cd,1669233842743.0,1669233857847.0,view,"{'blocks': [{'x': 0, 'y': 0, 'height': 2, 'width': 1}, {'x': 0, 'y': 2, 'height': 1, 'width': 2}, {'x': 0, 'y': 3, 'height': 1, 'width': 2}, {'x': 1, 'y': 4, 'height': 2, 'width': 1}, {'x': 3, 'y': 0, 'height': 2, 'width': 1}, {'x': 2, 'y': 2, 'height': 1, 'width': 2}, {'x': 2, 'y': 3, 'height': 2, 'width': 1}, {'x': 2, 'y': 5, 'height': 1, 'width': 2}]}",,6,0000000000000000011100000110000011100000111100001001000010010000,talls_102_126,tall_102,wide_024,tall_126,wide_011,talls_102_126,talls_102_126,block-tower-viewing,8,349797,0.0-8.0,block_construction_build_components,build_components_pilot_2,5e7ca836a60b642ec70880b1,2329-4176a153-b15a-4d39-a8e0-1744da902629,Prolific,trial_end,"{'new': 'z', 'old': 'm'}",,,,,,,,,,,,,,
22,637e7cd3c178f27685c4f6d7,1669233856733.0,1669233871785.0,view,"{'blocks': [{'x': 1, 'y': 0, 'height': 2, 'width': 1}, {'x': 0, 'y': 2, 'height': 1, 'width': 2}, {'x': 0, 'y': 3, 'height': 1, 'width': 2}, {'x': 0, 'y': 4, 'height': 2, 'width': 1}, {'x': 3, 'y': 0, 'height': 2, 'width': 1}, {'x': 2, 'y': 2, 'height': 1, 'width': 2}, {'x': 2, 'y': 3, 'height': 1, 'width': 2}, {'x': 3, 'y': 4, 'height': 2, 'width': 1}]}",,4,0000000000000000100100001001000011110000111100000101000001010000,talls_115_101,tall_115,wide_022,tall_101,wide_013,talls_115_101,talls_115_101,block-tower-viewing,6,543328,0.0-6.0,block_construction_build_components,build_components_pilot_2,5ea980e8a5e7d908472c2fb0,9967-0409bbad-ac1c-46a8-8b0b-9f9a0deff968,Prolific,trial_end,"{'new': 'z', 'old': 'm'}",,,,,,,,,,,,,,
23,637e7cdfc178f27685c4f6e4,1669233859778.0,,build,"{'blocks': [{'x': 1, 'y': 0, 'height': 2, 'width': 1}, {'x': 0, 'y': 2, 'height': 1, 'width': 2}, {'x': 1, 'y': 3, 'height': 2, 'width': 1}, {'x': 0, 'y': 5, 'height': 1, 'width': 2}, {'x': 3, 'y': 0, 'height': 2, 'width': 1}, {'x': 2, 'y': 2, 'height': 1, 'width': 2}, {'x': 2, 'y': 3, 'height': 1, 'width': 2}, {'x': 3, 'y': 4, 'height': 2, 'width': 1}]}",,7,0000000000000000110100000101000001110000111100000101000001010000,talls_121_101,tall_121,wide_022,tall_101,wide_018,talls_121_101,talls_121_101,block-tower-building,9,378484,0.0-9.0,block_construction_build_components,build_components_pilot_2,5e7ca836a60b642ec70880b1,2329-4176a153-b15a-4d39-a8e0-1744da902629,Prolific,trial_end,"{'new': 'z', 'old': 'm'}",1669233883364.0,375213.0,"[{'x': 4, 'y': 0, 'width': 1, 'height': 2}, {'x': 3, 'y': 2, 'width': 2, 'height': 1}, {'x': 4, 'y': 3, 'width': 1, 'height': 2}, {'x': 3, 'y': 5, 'width': 2, 'height': 1}, {'x': 6, 'y': 0, 'width': 1, 'height': 2}, {'x': 5, 'y': 2, 'width': 2, 'height': 1}, {'x': 5, 'y': 3, 'width': 2, 'height': 1}, {'x': 6, 'y': 4, 'width': 1, 'height': 2}]","[[True, True, True, True, True, True, True, True, True, True], [True, True, True, True, True, True, True, True, True, True], [True, True, True, True, True, True, True, True, True, True], [True, True, False, True, True, False, True, True, True, True], [False, False, False, False, False, False, True, True, True, True], [True, True, False, False, True, True, True, True, True, True], [False, False, False, False, False, False, True, True, True, True], [True, True, True, True, True, True, True, True, True, True], [True, True, True, True, True, True, True, True, True, True], [True, True, True, True, True, True, True, True, True, True], [True, True, True, True, True, True, True, True, True, True], [True, True, True, True, True, True, True, True, True, True]]",trial_end,perfect-reconstruction-translation,23586.0,0.0,0.0,,,,,
24,637e7ce3c178f27685c4f6e6,1669233873483.0,1669233888546.0,view,"{'blocks': [{'x': 0, 'y': 0, 'height': 2, 'width': 1}, {'x': 0, 'y': 2, 'height': 1, 'width': 2}, {'x': 0, 'y': 3, 'height': 1, 'width': 2}, {'x': 1, 'y': 4, 'height': 2, 'width': 1}, {'x': 2, 'y': 0, 'height': 2, 'width': 1}, {'x': 2, 'y': 2, 'height': 1, 'width': 2}, {'x': 2, 'y': 3, 'height': 2, 'width': 1}, {'x': 2, 'y': 5, 'height': 1, 'width': 2}]}",,5,0000000000000000011100000110000011100000111100001010000010100000,talls_102_127,tall_102,wide_025,tall_127,wide_011,talls_102_127,talls_102_127,block-tower-viewing,7,560090,0.0-7.0,block_construction_build_components,build_components_pilot_2,5ea980e8a5e7d908472c2fb0,9967-0409bbad-ac1c-46a8-8b0b-9f9a0deff968,Prolific,trial_end,"{'new': 'z', 'old': 'm'}",,,,,,,,,,,,,,
25,637e7cf0c178f27685c4f6eb,1669233888466.0,1669233903655.0,view,"{'blocks': [{'x': 1, 'y': 0, 'height': 2, 'width': 1}, {'x': 0, 'y': 2, 'height': 1, 'width': 2}, {'x': 0, 'y': 3, 'height': 1, 'width': 2}, {'x': 1, 'y': 4, 'height': 2, 'width': 1}, {'x': 2, 'y': 0, 'height': 1, 'width': 2}, {'x': 3, 'y': 1, 'height': 2, 'width': 1}, {'x': 2, 'y': 3, 'height': 1, 'width': 2}, {'x': 2, 'y': 4, 'height': 2, 'width': 1}]}",,8,0000000000000000011000000110000011110000110100000101000001110000,talls_101_111,tall_101,wide_018,tall_111,wide_008,talls_101_111,talls_101_111,block-tower-viewing,10,395587,0.0-10.0,block_construction_build_components,build_components_pilot_2,5e7ca836a60b642ec70880b1,2329-4176a153-b15a-4d39-a8e0-1744da902629,Prolific,trial_end,"{'new': 'z', 'old': 'm'}",,,,,,,,,,,,,,
26,637e7d0ac178f27685c4f706,1669233722780.0,,build,"{'blocks': [{'x': 0, 'y': 0, 'height': 1, 'width': 2}, {'x': 0, 'y': 1, 'height': 2, 'width': 1}, {'x': 0, 'y': 3, 'height': 1, 'width': 2}, {'x': 1, 'y': 4, 'height': 2, 'width': 1}, {'x': 2, 'y': 0, 'height': 1, 'width': 2}, {'x': 3, 'y': 1, 'height': 2, 'width': 1}, {'x': 2, 'y': 3, 'height': 1, 'width': 2}, {'x': 3, 'y': 4, 'height': 2, 'width': 1}]}",,2,0000000000000000010100000101000011110000100100001001000011110000,talls_100_097,tall_100,wide_013,tall_097,wide_006,talls_100_097,talls_100_097,block-tower-building,4,371006,0.0-4.0,block_construction_build_components,build_components_pilot_2,60425a37f2994f0e28bf29da,0953-ddcb856a-a699-47a3-8f7d-700ee645c217,Prolific,trial_end,"{'new': 'm', 'old': 'z'}",1669233920371.0,368314.0,"[{'x': 3, 'y': 0, 'width': 2, 'height': 1}, {'x': 5, 'y': 0, 'width': 2, 'height': 1}, {'x': 3, 'y': 1, 'width': 1, 'height': 2}, {'x': 3, 'y': 3, 'width': 2, 'height': 1}, {'x': 6, 'y': 1, 'width': 1, 'height': 2}, {'x': 5, 'y': 3, 'width': 2, 'height': 1}, {'x': 4, 'y': 4, 'width': 1, 'height': 2}, {'x': 6, 'y': 4, 'width': 1, 'height': 2}]","[[True, True, True, True, True, True, True, True, True, True], [True, True, True, True, True, True, True, True, True, True], [True, True, True, True, True, True, True, True, True, True], [False, False, False, False, True, True, True, True, True, True], [False, True, True, False, False, False, True, True, True, True], [False, True, True, False, True, True, True, True, True, True], [False, False, False, False, False, False, True, True, True, True], [True, True, True, True, True, True, True, True, True, True], [True, True, True, True, True, True, True, True, True, True], [True, True, True, True, True, True, True, True, True, True], [True, True, True, True, True, True, True, True, True, True], [True, True, True, True, True, True, True, True, True, True]]",trial_end,perfect-reconstruction-translation,197591.0,0.0,4.0,,,,,
27,637e7d0ec178f27685c4f709,1669233905619.0,,build,"{'blocks': [{'x': 0, 'y': 0, 'height': 1, 'width': 2}, {'x': 1, 'y': 1, 'height': 2, 'width': 1}, {'x': 0, 'y': 3, 'height': 1, 'width': 2}, {'x': 1, 'y': 4, 'height': 2, 'width': 1}, {'x': 2, 'y': 0, 'height': 1, 'width': 2}, {'x': 2, 'y': 1, 'height': 2, 'width': 1}, {'x': 2, 'y': 3, 'height': 1, 'width': 2}, {'x': 3, 'y': 4, 'height': 2, 'width': 1}]}",,9,0000000000000000010100000101000011110000011000000110000011110000,talls_097_100,tall_097,wide_008,tall_100,wide_006,talls_097_100,talls_097_100,block-tower-building,11,424747,0.0-11.0,block_construction_build_components,build_components_pilot_2,5e7ca836a60b642ec70880b1,2329-4176a153-b15a-4d39-a8e0-1744da902629,Prolific,trial_end,"{'new': 'z', 'old': 'm'}",1669233929454.0,421303.0,"[{'x': 4, 'y': 0, 'width': 2, 'height': 1}, {'x': 6, 'y': 0, 'width': 2, 'height': 1}, {'x': 5, 'y': 1, 'width': 1, 'height': 2}, {'x': 6, 'y': 1, 'width': 1, 'height': 2}, {'x': 4, 'y': 3, 'width': 2, 'height': 1}, {'x': 6, 'y': 3, 'width': 2, 'height': 1}, {'x': 5, 'y': 4, 'width': 1, 'height': 2}, {'x': 7, 'y': 4, 'width': 1, 'height': 2}]","[[True, True, True, True, True, True, True, True, True, True], [True, True, True, True, True, True, True, True, True, True], [True, True, True, True, True, True, True, True, True, True], [True, True, True, True, True, True, True, True, True, True], [False, True, True, False, True, True, True, True, True, True], [False, False, False, False, False, False, True, True, True, True], [False, False, False, False, True, True, True, True, True, True], [False, True, True, False, False, False, True, True, True, True], [True, True, True, True, True, True, True, True, True, True], [True, True, True, True, True, True, True, True, True, True], [True, True, True, True, True, True, True, True, True, True], [True, True, True, True, True, True, True, True, True, True]]",trial_end,perfect-reconstruction-translation,23835.0,0.0,0.0,,,,,
28,637e7d15c178f27685c4f70d,1669233890251.0,,build,"{'blocks': [{'x': 0, 'y': 0, 'height': 1, 'width': 2}, {'x': 1, 'y': 1, 'height': 2, 'width': 1}, {'x': 1, 'y': 3, 'height': 2, 'width': 1}, {'x': 0, 'y': 5, 'height': 1, 'width': 2}, {'x': 2, 'y': 0, 'height': 1, 'width': 2}, {'x': 2, 'y': 1, 'height': 2, 'width': 1}, {'x': 2, 'y': 3, 'height': 1, 'width': 2}, {'x': 2, 'y': 4, 'height': 2, 'width': 1}]}",,6,0000000000000000111000000110000001110000011000000110000011110000,talls_118_114,tall_118,wide_008,tall_114,wide_019,talls_118_114,talls_118_114,block-tower-building,8,609897,0.0-8.0,block_construction_build_components,build_components_pilot_2,5ea980e8a5e7d908472c2fb0,9967-0409bbad-ac1c-46a8-8b0b-9f9a0deff968,Prolific,trial_end,"{'new': 'z', 'old': 'm'}",1669233935278.0,606854.0,"[{'x': 3, 'y': 0, 'width': 2, 'height': 1}, {'x': 5, 'y': 0, 'width': 2, 'height': 1}, {'x': 4, 'y': 1, 'width': 1, 'height': 2}, {'x': 5, 'y': 1, 'width': 1, 'height': 2}, {'x': 5, 'y': 3, 'width': 2, 'height': 1}, {'x': 4, 'y': 3, 'width': 1, 'height': 2}, {'x': 5, 'y': 4, 'width': 1, 'height': 2}, {'x': 3, 'y': 5, 'width': 2, 'height': 1}]","[[True, True, True, True, True, True, True, True, True, True], [True, True, True, True, True, True, True, True, True, True], [True, True, True, True, True, True, True, True, True, True], [False, True, True, True, True, False, True, True, True, True], [False, False, False, False, False, False, True, True, True, True], [False, False, False, False, False, False, True, True, True, True], [False, True, True, False, True, True, True, True, True, True], [True, True, True, True, True, True, True, True, True, True], [True, True, True, True, True, True, True, True, True, True], [True, True, True, True, True, True, True, True, True, True], [True, True, True, True, True, True, True, True, True, True], [True, True, True, True, True, True, True, True, True, True]]",trial_end,perfect-reconstruction-translation,45027.0,0.0,0.0,,,,,
29,637e7d1cc178f27685c4f70e,1669233924976.0,1669233940178.0,view,"{'blocks': [{'x': 1, 'y': 0, 'height': 2, 'width': 1}, {'x': 0, 'y': 2, 'height': 1, 'width': 2}, {'x': 1, 'y': 3, 'height': 2, 'width': 1}, {'x': 0, 'y': 5, 'height': 1, 'width': 2}, {'x': 2, 'y': 0, 'height': 1, 'width': 2}, {'x': 3, 'y': 1, 'height': 2, 'width': 1}, {'x': 3, 'y': 3, 'height': 2, 'width': 1}, {'x': 2, 'y': 5, 'height': 1, 'width': 2}]}",,3,0000000000000000111100000101000001010000110100000101000001110000,talls_121_118,tall_121,wide_018,tall_118,wide_022,talls_121_118,talls_121_118,block-tower-viewing,5,388810,0.0-5.0,block_construction_build_components,build_components_pilot_2,60425a37f2994f0e28bf29da,0953-ddcb856a-a699-47a3-8f7d-700ee645c217,Prolific,trial_end,"{'new': 'm', 'old': 'z'}",,,,,,,,,,,,,,
30,637e7d1fc178f27685c4f70f,1669233934690.0,1669233949902.0,view,"{'blocks': [{'x': 0, 'y': 0, 'height': 1, 'width': 2}, {'x': 1, 'y': 1, 'height': 2, 'width': 1}, {'x': 0, 'y': 3, 'height': 1, 'width': 2}, {'x': 0, 'y': 4, 'height': 2, 'width': 1}, {'x': 2, 'y': 0, 'height': 1, 'width': 2}, {'x': 2, 'y': 1, 'height': 2, 'width': 1}, {'x': 2, 'y': 3, 'height': 2, 'width': 1}, {'x': 2, 'y': 5, 'height': 1, 'width': 2}]}",,10,0000000000000000101100001010000011100000011000000110000011110000,talls_111_125,tall_111,wide_008,tall_125,wide_015,talls_111_125,talls_111_125,block-tower-viewing,12,441962,0.0-12.0,block_construction_build_components,build_components_pilot_2,5e7ca836a60b642ec70880b1,2329-4176a153-b15a-4d39-a8e0-1744da902629,Prolific,trial_end,"{'new': 'z', 'old': 'm'}",,,,,,,,,,,,,,
31,637e7d26c178f27685c4f713,1669233940104.0,1669233955200.0,view,"{'blocks': [{'x': 1, 'y': 0, 'height': 2, 'width': 1}, {'x': 0, 'y': 2, 'height': 1, 'width': 2}, {'x': 1, 'y': 3, 'height': 2, 'width': 1}, {'x': 0, 'y': 5, 'height': 1, 'width': 2}, {'x': 3, 'y': 0, 'height': 2, 'width': 1}, {'x': 2, 'y': 2, 'height': 1, 'width': 2}, {'x': 2, 'y': 3, 'height': 1, 'width': 2}, {'x': 3, 'y': 4, 'height': 2, 'width': 1}]}",,7,0000000000000000110100000101000001110000111100000101000001010000,talls_121_101,tall_121,wide_022,tall_101,wide_018,talls_121_101,talls_121_101,block-tower-viewing,9,626737,0.0-9.0,block_construction_build_components,build_components_pilot_2,5ea980e8a5e7d908472c2fb0,9967-0409bbad-ac1c-46a8-8b0b-9f9a0deff968,Prolific,trial_end,"{'new': 'z', 'old': 'm'}",,,,,,,,,,,,,,
32,637e7d2dc178f27685c4f717,1669233943178.0,1669233958184.0,view,"{'blocks': [{'x': 1, 'y': 0, 'height': 2, 'width': 1}, {'x': 0, 'y': 2, 'height': 1, 'width': 2}, {'x': 1, 'y': 3, 'height': 2, 'width': 1}, {'x': 0, 'y': 5, 'height': 1, 'width': 2}, {'x': 3, 'y': 0, 'height': 2, 'width': 1}, {'x': 2, 'y': 2, 'height': 1, 'width': 2}, {'x': 2, 'y': 3, 'height': 1, 'width': 2}, {'x': 3, 'y': 4, 'height': 2, 'width': 1}]}",,4,0000000000000000110100000101000001110000111100000101000001010000,talls_121_101,tall_121,wide_022,tall_101,wide_018,talls_121_101,talls_121_101,block-tower-viewing,6,405824,0.0-6.0,block_construction_build_components,build_components_pilot_2,60425a37f2994f0e28bf29da,0953-ddcb856a-a699-47a3-8f7d-700ee645c217,Prolific,trial_end,"{'new': 'm', 'old': 'z'}",,,,,,,,,,,,,,
33,637e7d50c178f27685c4f734,1669233956917.0,,build,"{'blocks': [{'x': 0, 'y': 0, 'height': 2, 'width': 1}, {'x': 0, 'y': 2, 'height': 1, 'width': 2}, {'x': 0, 'y': 3, 'height': 2, 'width': 1}, {'x': 0, 'y': 5, 'height': 1, 'width': 2}, {'x': 2, 'y': 0, 'height': 1, 'width': 2}, {'x': 2, 'y': 1, 'height': 2, 'width': 1}, {'x': 2, 'y': 3, 'height': 2, 'width': 1}, {'x': 2, 'y': 5, 'height': 1, 'width': 2}]}",,8,0000000000000000111100001010000010100000111000001010000010110000,talls_127_125,tall_127,wide_020,tall_125,wide_025,talls_127_125,talls_127_125,block-tower-building,10,668937,0.0-10.0,block_construction_build_components,build_components_pilot_2,5ea980e8a5e7d908472c2fb0,9967-0409bbad-ac1c-46a8-8b0b-9f9a0deff968,Prolific,trial_end,"{'new': 'z', 'old': 'm'}",1669233994295.0,665871.0,"[{'x': 6, 'y': 0, 'width': 2, 'height': 1}, {'x': 4, 'y': 0, 'width': 1, 'height': 2}, {'x': 4, 'y': 2, 'width': 2, 'height': 1}, {'x': 6, 'y': 1, 'width': 1, 'height': 2}, {'x': 6, 'y': 3, 'width': 1, 'height': 2}, {'x': 4, 'y': 3, 'width': 1, 'height': 2}, {'x': 4, 'y': 5, 'width': 2, 'height': 1}, {'x': 6, 'y': 5, 'width': 2, 'height': 1}]","[[True, True, True, True, True, True, True, True, True, True], [True, True, True, True, True, True, True, True, True, True], [True, True, True, True, True, True, True, True, True, True], [True, True, True, True, True, True, True, True, True, True], [False, False, False, False, False, False, True, True, True, True], [True, True, False, True, True, False, True, True, True, True], [False, False, False, False, False, False, True, True, True, True], [False, True, True, True, True, False, True, True, True, True], [True, True, True, True, True, True, True, True, True, True], [True, True, True, True, True, True, True, True, True, True], [True, True, True, True, True, True, True, True, True, True], [True, True, True, True, True, True, True, True, True, True]]",trial_end,perfect-reconstruction-translation,37378.0,0.0,0.0,,,,,
34,637e7d56c178f27685c4f738,1669233951952.0,,build,"{'blocks': [{'x': 0, 'y': 0, 'height': 2, 'width': 1}, {'x': 0, 'y': 2, 'height': 1, 'width': 2}, {'x': 1, 'y': 3, 'height': 2, 'width': 1}, {'x': 0, 'y': 5, 'height': 1, 'width': 2}, {'x': 3, 'y': 0, 'height': 2, 'width': 1}, {'x': 2, 'y': 2, 'height': 1, 'width': 2}, {'x': 2, 'y': 3, 'height': 1, 'width': 2}, {'x': 2, 'y': 4, 'height': 2, 'width': 1}]}",,11,0000000000000000111000000110000001110000111100001001000010010000,talls_122_115,tall_122,wide_024,tall_115,wide_019,talls_122_115,talls_122_115,block-tower-building,13,496649,0.0-13.0,block_construction_build_components,build_components_pilot_2,5e7ca836a60b642ec70880b1,2329-4176a153-b15a-4d39-a8e0-1744da902629,Prolific,trial_end,"{'new': 'z', 'old': 'm'}",1669234001350.0,493199.0,"[{'x': 4, 'y': 0, 'width': 1, 'height': 2}, {'x': 7, 'y': 0, 'width': 1, 'height': 2}, {'x': 4, 'y': 2, 'width': 2, 'height': 1}, {'x': 6, 'y': 2, 'width': 2, 'height': 1}, {'x': 6, 'y': 3, 'width': 2, 'height': 1}, {'x': 5, 'y': 3, 'width': 1, 'height': 2}, {'x': 6, 'y': 4, 'width': 1, 'height': 2}, {'x': 4, 'y': 5, 'width': 2, 'height': 1}]","[[True, True, True, True, True, True, True, True, True, True], [True, True, True, True, True, True, True, True, True, True], [True, True, True, True, True, True, True, True, True, True], [True, True, True, True, True, True, True, True, True, True], [False, False, False, True, True, False, True, True, True, True], [True, True, False, False, False, False, True, True, True, True], [True, True, False, False, False, False, True, True, True, True], [False, False, False, False, True, True, True, True, True, True], [True, True, True, True, True, True, True, True, True, True], [True, True, True, True, True, True, True, True, True, True], [True, True, True, True, True, True, True, True, True, True], [True, True, True, True, True, True, True, True, True, True]]",trial_end,perfect-reconstruction-translation,49398.0,0.0,1.0,,,,,
35,637e7d61c178f27685c4f73c,1669233999126.0,1669234014225.0,view,"{'blocks': [{'x': 1, 'y': 0, 'height': 2, 'width': 1}, {'x': 0, 'y': 2, 'height': 1, 'width': 2}, {'x': 1, 'y': 3, 'height': 2, 'width': 1}, {'x': 0, 'y': 5, 'height': 1, 'width': 2}, {'x': 2, 'y': 0, 'height': 1, 'width': 2}, {'x': 3, 'y': 1, 'height': 2, 'width': 1}, {'x': 3, 'y': 3, 'height': 2, 'width': 1}, {'x': 2, 'y': 5, 'height': 1, 'width': 2}]}",,9,0000000000000000111100000101000001010000110100000101000001110000,talls_121_118,tall_121,wide_018,tall_118,wide_022,talls_121_118,talls_121_118,block-tower-viewing,11,685830,0.0-11.0,block_construction_build_components,build_components_pilot_2,5ea980e8a5e7d908472c2fb0,9967-0409bbad-ac1c-46a8-8b0b-9f9a0deff968,Prolific,trial_end,"{'new': 'z', 'old': 'm'}",,,,,,,,,,,,,,
36,637e7d67c178f27685c4f740,1669234006695.0,1669234022007.0,view,"{'blocks': [{'x': 0, 'y': 0, 'height': 1, 'width': 2}, {'x': 1, 'y': 1, 'height': 2, 'width': 1}, {'x': 0, 'y': 3, 'height': 1, 'width': 2}, {'x': 0, 'y': 4, 'height': 2, 'width': 1}, {'x': 2, 'y': 0, 'height': 2, 'width': 1}, {'x': 2, 'y': 2, 'height': 1, 'width': 2}, {'x': 2, 'y': 3, 'height': 2, 'width': 1}, {'x': 2, 'y': 5, 'height': 1, 'width': 2}]}",,12,0000000000000000101100001010000011100000011100000110000011100000,talls_111_127,tall_111,wide_011,tall_127,wide_015,talls_111_127,talls_111_127,block-tower-viewing,14,514108,0.0-14.0,block_construction_build_components,build_components_pilot_2,5e7ca836a60b642ec70880b1,2329-4176a153-b15a-4d39-a8e0-1744da902629,Prolific,trial_end,"{'new': 'z', 'old': 'm'}",,,,,,,,,,,,,,
37,637e7d6bc178f27685c4f741,1669233959794.0,,build,"{'blocks': [{'x': 0, 'y': 0, 'height': 1, 'width': 2}, {'x': 1, 'y': 1, 'height': 2, 'width': 1}, {'x': 0, 'y': 3, 'height': 1, 'width': 2}, {'x': 1, 'y': 4, 'height': 2, 'width': 1}, {'x': 2, 'y': 0, 'height': 1, 'width': 2}, {'x': 3, 'y': 1, 'height': 2, 'width': 1}, {'x': 3, 'y': 3, 'height': 2, 'width': 1}, {'x': 2, 'y': 5, 'height': 1, 'width': 2}]}",,5,0000000000000000011100000101000011010000010100000101000011110000,talls_097_118,tall_097,wide_006,tall_118,wide_010,talls_097_118,talls_097_118,block-tower-building,7,467815,0.0-7.0,block_construction_build_components,build_components_pilot_2,60425a37f2994f0e28bf29da,0953-ddcb856a-a699-47a3-8f7d-700ee645c217,Prolific,trial_end,"{'new': 'm', 'old': 'z'}",1669234016861.0,464804.0,"[{'x': 3, 'y': 0, 'width': 2, 'height': 1}, {'x': 4, 'y': 1, 'width': 1, 'height': 2}, {'x': 5, 'y': 0, 'width': 2, 'height': 1}, {'x': 6, 'y': 1, 'width': 1, 'height': 2}, {'x': 3, 'y': 3, 'width': 2, 'height': 1}, {'x': 4, 'y': 4, 'width': 1, 'height': 2}, {'x': 6, 'y': 3, 'width': 1, 'height': 2}, {'x': 5, 'y': 5, 'width': 2, 'height': 1}]","[[True, True, True, True, True, True, True, True, True, True], [True, True, True, True, True, True, True, True, True, True], [True, True, True, True, True, True, True, True, True, True], [False, True, True, False, True, True, True, True, True, True], [False, False, False, False, False, False, True, True, True, True], [False, True, True, True, True, False, True, True, True, True], [False, False, False, False, False, False, True, True, True, True], [True, True, True, True, True, True, True, True, True, True], [True, True, True, True, True, True, True, True, True, True], [True, True, True, True, True, True, True, True, True, True], [True, True, True, True, True, True, True, True, True, True], [True, True, True, True, True, True, True, True, True, True]]",trial_end,perfect-reconstruction-translation,57067.0,0.0,1.0,,,,,
38,637e7d9ec178f27685c4f762,1669234016032.0,,build,"{'blocks': [{'x': 0, 'y': 0, 'height': 2, 'width': 1}, {'x': 0, 'y': 2, 'height': 1, 'width': 2}, {'x': 0, 'y': 3, 'height': 2, 'width': 1}, {'x': 0, 'y': 5, 'height': 1, 'width': 2}, {'x': 3, 'y': 0, 'height': 2, 'width': 1}, {'x': 2, 'y': 2, 'height': 1, 'width': 2}, {'x': 2, 'y': 3, 'height': 1, 'width': 2}, {'x': 2, 'y': 4, 'height': 2, 'width': 1}]}",,10,0000000000000000111000001010000010110000111100001001000010010000,talls_127_115,tall_127,wide_024,tall_115,wide_020,talls_127_115,talls_127_115,block-tower-building,12,746710,0.0-12.0,block_construction_build_components,build_components_pilot_2,5ea980e8a5e7d908472c2fb0,9967-0409bbad-ac1c-46a8-8b0b-9f9a0deff968,Prolific,trial_end,"{'new': 'z', 'old': 'm'}",1669234071916.0,743492.0,"[{'x': 4, 'y': 0, 'width': 1, 'height': 2}, {'x': 7, 'y': 0, 'width': 1, 'height': 2}, {'x': 6, 'y': 2, 'width': 2, 'height': 1}, {'x': 4, 'y': 2, 'width': 2, 'height': 1}, {'x': 4, 'y': 3, 'width': 1, 'height': 2}, {'x': 6, 'y': 3, 'width': 2, 'height': 1}, {'x': 4, 'y': 5, 'width': 2, 'height': 1}, {'x': 6, 'y': 4, 'width': 1, 'height': 2}]","[[True, True, True, True, True, True, True, True, True, True], [True, True, True, True, True, True, True, True, True, True], [True, True, True, True, True, True, True, True, True, True], [True, True, True, True, True, True, True, True, True, True], [False, False, False, False, False, False, True, True, True, True], [True, True, False, True, True, False, True, True, True, True], [True, True, False, False, False, False, True, True, True, True], [False, False, False, False, True, True, True, True, True, True], [True, True, True, True, True, True, True, True, True, True], [True, True, True, True, True, True, True, True, True, True], [True, True, True, True, True, True, True, True, True, True], [True, True, True, True, True, True, True, True, True, True]]",trial_end,perfect-reconstruction-translation,55886.0,0.0,1.0,,,,,
39,637e7da4c178f27685c4f765,1669234022182.0,,build,"{'blocks': [{'x': 1, 'y': 0, 'height': 2, 'width': 1}, {'x': 0, 'y': 2, 'height': 1, 'width': 2}, {'x': 0, 'y': 3, 'height': 1, 'width': 2}, {'x': 1, 'y': 4, 'height': 2, 'width': 1}, {'x': 2, 'y': 0, 'height': 1, 'width': 2}, {'x': 2, 'y': 1, 'height': 2, 'width': 1}, {'x': 2, 'y': 3, 'height': 1, 'width': 2}, {'x': 3, 'y': 4, 'height': 2, 'width': 1}]}",,6,0000000000000000010100000101000011110000111000000110000001110000,talls_101_100,tall_101,wide_019,tall_100,wide_006,talls_101_100,talls_101_100,block-tower-building,8,524812,0.0-8.0,block_construction_build_components,build_components_pilot_2,60425a37f2994f0e28bf29da,0953-ddcb856a-a699-47a3-8f7d-700ee645c217,Prolific,trial_end,"{'new': 'm', 'old': 'z'}",1669234072878.0,520821.0,"[{'x': 6, 'y': 0, 'width': 2, 'height': 1}, {'x': 5, 'y': 0, 'width': 1, 'height': 2}, {'x': 6, 'y': 1, 'width': 1, 'height': 2}, {'x': 4, 'y': 2, 'width': 2, 'height': 1}, {'x': 4, 'y': 3, 'width': 2, 'height': 1}, {'x': 5, 'y': 4, 'width': 1, 'height': 2}, {'x': 6, 'y': 3, 'width': 2, 'height': 1}, {'x': 7, 'y': 4, 'width': 1, 'height': 2}]","[[True, True, True, True, True, True, True, True, True, True], [True, True, True, True, True, True, True, True, True, True], [True, True, True, True, True, True, True, True, True, True], [True, True, True, True, True, True, True, True, True, True], [True, True, False, False, True, True, True, True, True, True], [False, False, False, False, False, False, True, True, True, True], [False, False, False, False, True, True, True, True, True, True], [False, True, True, False, False, False, True, True, True, True], [True, True, True, True, True, True, True, True, True, True], [True, True, True, True, True, True, True, True, True, True], [True, True, True, True, True, True, True, True, True, True], [True, True, True, True, True, True, True, True, True, True]]",trial_end,perfect-reconstruction-translation,50696.0,0.0,3.0,,,,,
40,637e7dafc178f27685c4f768,1669234076920.0,1669234092041.0,view,"{'blocks': [{'x': 0, 'y': 0, 'height': 1, 'width': 2}, {'x': 0, 'y': 1, 'height': 2, 'width': 1}, {'x': 0, 'y': 3, 'height': 1, 'width': 2}, {'x': 0, 'y': 4, 'height': 2, 'width': 1}, {'x': 2, 'y': 0, 'height': 1, 'width': 2}, {'x': 3, 'y': 1, 'height': 2, 'width': 1}, {'x': 2, 'y': 3, 'height': 1, 'width': 2}, {'x': 2, 'y': 4, 'height': 2, 'width': 1}]}",,11,0000000000000000101000001010000011110000100100001001000011110000,talls_114_111,tall_114,wide_013,tall_111,wide_014,talls_114_111,talls_114_111,block-tower-viewing,13,763659,0.0-13.0,block_construction_build_components,build_components_pilot_2,5ea980e8a5e7d908472c2fb0,9967-0409bbad-ac1c-46a8-8b0b-9f9a0deff968,Prolific,trial_end,"{'new': 'z', 'old': 'm'}",,,,,,,,,,,,,,
41,637e7db5c178f27685c4f76b,1669234079187.0,1669234094232.0,view,"{'blocks': [{'x': 0, 'y': 0, 'height': 1, 'width': 2}, {'x': 1, 'y': 1, 'height': 2, 'width': 1}, {'x': 1, 'y': 3, 'height': 2, 'width': 1}, {'x': 0, 'y': 5, 'height': 1, 'width': 2}, {'x': 2, 'y': 0, 'height': 1, 'width': 2}, {'x': 2, 'y': 1, 'height': 2, 'width': 1}, {'x': 2, 'y': 3, 'height': 1, 'width': 2}, {'x': 2, 'y': 4, 'height': 2, 'width': 1}]}",,7,0000000000000000111000000110000001110000011000000110000011110000,talls_118_114,tall_118,wide_008,tall_114,wide_019,talls_118_114,talls_118_114,block-tower-viewing,9,541899,0.0-9.0,block_construction_build_components,build_components_pilot_2,60425a37f2994f0e28bf29da,0953-ddcb856a-a699-47a3-8f7d-700ee645c217,Prolific,trial_end,"{'new': 'm', 'old': 'z'}",,,,,,,,,,,,,,
42,637e7dd5c178f27685c4f77b,1669234095913.0,,build,"{'blocks': [{'x': 0, 'y': 0, 'height': 1, 'width': 2}, {'x': 1, 'y': 1, 'height': 2, 'width': 1}, {'x': 0, 'y': 3, 'height': 1, 'width': 2}, {'x': 0, 'y': 4, 'height': 2, 'width': 1}, {'x': 2, 'y': 0, 'height': 1, 'width': 2}, {'x': 2, 'y': 1, 'height': 2, 'width': 1}, {'x': 2, 'y': 3, 'height': 2, 'width': 1}, {'x': 2, 'y': 5, 'height': 1, 'width': 2}]}",,8,0000000000000000101100001010000011100000011000000110000011110000,talls_111_125,tall_111,wide_008,tall_125,wide_015,talls_111_125,talls_111_125,block-tower-building,10,574053,0.0-10.0,block_construction_build_components,build_components_pilot_2,60425a37f2994f0e28bf29da,0953-ddcb856a-a699-47a3-8f7d-700ee645c217,Prolific,trial_end,"{'new': 'm', 'old': 'z'}",1669234123362.0,571305.0,"[{'x': 4, 'y': 0, 'width': 2, 'height': 1}, {'x': 6, 'y': 0, 'width': 2, 'height': 1}, {'x': 5, 'y': 1, 'width': 1, 'height': 2}, {'x': 6, 'y': 1, 'width': 1, 'height': 2}, {'x': 4, 'y': 3, 'width': 2, 'height': 1}, {'x': 6, 'y': 3, 'width': 1, 'height': 2}, {'x': 6, 'y': 5, 'width': 2, 'height': 1}, {'x': 4, 'y': 4, 'width': 1, 'height': 2}]","[[True, True, True, True, True, True, True, True, True, True], [True, True, True, True, True, True, True, True, True, True], [True, True, True, True, True, True, True, True, True, True], [True, True, True, True, True, True, True, True, True, True], [False, True, True, False, False, False, True, True, True, True], [False, False, False, False, True, True, True, True, True, True], [False, False, False, False, False, False, True, True, True, True], [False, True, True, True, True, False, True, True, True, True], [True, True, True, True, True, True, True, True, True, True], [True, True, True, True, True, True, True, True, True, True], [True, True, True, True, True, True, True, True, True, True], [True, True, True, True, True, True, True, True, True, True]]",trial_end,perfect-reconstruction-translation,27449.0,0.0,0.0,,,,,
43,637e7de6c178f27685c4f77d,1669234128055.0,1669234143099.0,view,"{'blocks': [{'x': 0, 'y': 0, 'height': 1, 'width': 2}, {'x': 1, 'y': 1, 'height': 2, 'width': 1}, {'x': 0, 'y': 3, 'height': 1, 'width': 2}, {'x': 0, 'y': 4, 'height': 2, 'width': 1}, {'x': 2, 'y': 0, 'height': 2, 'width': 1}, {'x': 2, 'y': 2, 'height': 1, 'width': 2}, {'x': 2, 'y': 3, 'height': 2, 'width': 1}, {'x': 2, 'y': 5, 'height': 1, 'width': 2}]}",,9,0000000000000000101100001010000011100000011100000110000011100000,talls_111_127,tall_111,wide_011,tall_127,wide_015,talls_111_127,talls_111_127,block-tower-viewing,11,590776,0.0-11.0,block_construction_build_components,build_components_pilot_2,60425a37f2994f0e28bf29da,0953-ddcb856a-a699-47a3-8f7d-700ee645c217,Prolific,trial_end,"{'new': 'm', 'old': 'z'}",,,,,,,,,,,,,,
44,637e7df7c178f27685c4f782,1669234144774.0,1669234159809.0,view,"{'blocks': [{'x': 0, 'y': 0, 'height': 2, 'width': 1}, {'x': 0, 'y': 2, 'height': 1, 'width': 2}, {'x': 0, 'y': 3, 'height': 1, 'width': 2}, {'x': 1, 'y': 4, 'height': 2, 'width': 1}, {'x': 3, 'y': 0, 'height': 2, 'width': 1}, {'x': 2, 'y': 2, 'height': 1, 'width': 2}, {'x': 2, 'y': 3, 'height': 2, 'width': 1}, {'x': 2, 'y': 5, 'height': 1, 'width': 2}]}",,10,0000000000000000011100000110000011100000111100001001000010010000,talls_102_126,tall_102,wide_024,tall_126,wide_011,talls_102_126,talls_102_126,block-tower-viewing,12,607469,0.0-12.0,block_construction_build_components,build_components_pilot_2,60425a37f2994f0e28bf29da,0953-ddcb856a-a699-47a3-8f7d-700ee645c217,Prolific,trial_end,"{'new': 'm', 'old': 'z'}",,,,,,,,,,,,,,
45,637e7dfcc178f27685c4f785,1669234155402.0,1669234170444.0,view,"{'blocks': [{'x': 0, 'y': 0, 'height': 2, 'width': 1}, {'x': 0, 'y': 2, 'height': 1, 'width': 2}, {'x': 0, 'y': 3, 'height': 1, 'width': 2}, {'x': 1, 'y': 4, 'height': 2, 'width': 1}, {'x': 2, 'y': 0, 'height': 2, 'width': 1}, {'x': 2, 'y': 2, 'height': 1, 'width': 2}, {'x': 2, 'y': 3, 'height': 2, 'width': 1}, {'x': 2, 'y': 5, 'height': 1, 'width': 2}]}",,1,0000000000000000011100000110000011100000111100001010000010100000,talls_102_127,tall_102,wide_025,tall_127,wide_011,talls_102_127,talls_102_127,block-tower-viewing,3,551458,0.0-3.0,block_construction_build_components,build_components_pilot_2,6034ed9d644c203f4f84c343,2794-f6f0ee0b-000f-4cc1-89ed-e562cd61f3e2,Prolific,trial_end,"{'new': 'm', 'old': 'z'}",,,,,,,,,,,,,,
46,637e7e0dc178f27685c4f78d,1669234172057.0,1669234187060.0,view,"{'blocks': [{'x': 1, 'y': 0, 'height': 2, 'width': 1}, {'x': 0, 'y': 2, 'height': 1, 'width': 2}, {'x': 0, 'y': 3, 'height': 1, 'width': 2}, {'x': 0, 'y': 4, 'height': 2, 'width': 1}, {'x': 3, 'y': 0, 'height': 2, 'width': 1}, {'x': 2, 'y': 2, 'height': 1, 'width': 2}, {'x': 2, 'y': 3, 'height': 1, 'width': 2}, {'x': 3, 'y': 4, 'height': 2, 'width': 1}]}",,2,0000000000000000100100001001000011110000111100000101000001010000,talls_115_101,tall_115,wide_022,tall_101,wide_013,talls_115_101,talls_115_101,block-tower-viewing,4,568074,0.0-4.0,block_construction_build_components,build_components_pilot_2,6034ed9d644c203f4f84c343,2794-f6f0ee0b-000f-4cc1-89ed-e562cd61f3e2,Prolific,trial_end,"{'new': 'm', 'old': 'z'}",,,,,,,,,,,,,,
47,637e7e18c178f27685c4f793,1669234161479.0,,build,"{'blocks': [{'x': 1, 'y': 0, 'height': 2, 'width': 1}, {'x': 0, 'y': 2, 'height': 1, 'width': 2}, {'x': 0, 'y': 3, 'height': 1, 'width': 2}, {'x': 0, 'y': 4, 'height': 2, 'width': 1}, {'x': 3, 'y': 0, 'height': 2, 'width': 1}, {'x': 2, 'y': 2, 'height': 1, 'width': 2}, {'x': 2, 'y': 3, 'height': 1, 'width': 2}, {'x': 3, 'y': 4, 'height': 2, 'width': 1}]}",,11,0000000000000000100100001001000011110000111100000101000001010000,talls_115_101,tall_115,wide_022,tall_101,wide_013,talls_115_101,talls_115_101,block-tower-building,13,641343,0.0-13.0,block_construction_build_components,build_components_pilot_2,60425a37f2994f0e28bf29da,0953-ddcb856a-a699-47a3-8f7d-700ee645c217,Prolific,trial_end,"{'new': 'm', 'old': 'z'}",1669234190599.0,638542.0,"[{'x': 4, 'y': 0, 'width': 1, 'height': 2}, {'x': 3, 'y': 2, 'width': 2, 'height': 1}, {'x': 6, 'y': 0, 'width': 1, 'height': 2}, {'x': 5, 'y': 2, 'width': 2, 'height': 1}, {'x': 3, 'y': 3, 'width': 2, 'height': 1}, {'x': 3, 'y': 4, 'width': 1, 'height': 2}, {'x': 5, 'y': 3, 'width': 2, 'height': 1}, {'x': 6, 'y': 4, 'width': 1, 'height': 2}]","[[True, True, True, True, True, True, True, True, True, True], [True, True, True, True, True, True, True, True, True, True], [True, True, True, True, True, True, True, True, True, True], [True, True, False, False, False, False, True, True, True, True], [False, False, False, False, True, True, True, True, True, True], [True, True, False, False, True, True, True, True, True, True], [False, False, False, False, False, False, True, True, True, True], [True, True, True, True, True, True, True, True, True, True], [True, True, True, True, True, True, True, True, True, True], [True, True, True, True, True, True, True, True, True, True], [True, True, True, True, True, True, True, True, True, True], [True, True, True, True, True, True, True, True, True, True]]",trial_end,perfect-reconstruction-translation,29120.0,0.0,0.0,,,,,
48,637e7ea5c178f27685c4f7ca,1669234188674.0,,build,"{'blocks': [{'x': 0, 'y': 0, 'height': 1, 'width': 2}, {'x': 1, 'y': 1, 'height': 2, 'width': 1}, {'x': 0, 'y': 3, 'height': 1, 'width': 2}, {'x': 1, 'y': 4, 'height': 2, 'width': 1}, {'x': 2, 'y': 0, 'height': 1, 'width': 2}, {'x': 3, 'y': 1, 'height': 2, 'width': 1}, {'x': 3, 'y': 3, 'height': 2, 'width': 1}, {'x': 2, 'y': 5, 'height': 1, 'width': 2}]}",,3,0000000000000000011100000101000011010000010100000101000011110000,talls_097_118,tall_097,wide_006,tall_118,wide_010,talls_097_118,talls_097_118,block-tower-building,5,720115,0.0-5.0,block_construction_build_components,build_components_pilot_2,6034ed9d644c203f4f84c343,2794-f6f0ee0b-000f-4cc1-89ed-e562cd61f3e2,Prolific,trial_end,"{'new': 'm', 'old': 'z'}",1669234336045.0,716833.0,"[{'x': 3, 'y': 0, 'width': 2, 'height': 1}, {'x': 5, 'y': 0, 'width': 2, 'height': 1}, {'x': 6, 'y': 1, 'width': 1, 'height': 2}, {'x': 6, 'y': 3, 'width': 1, 'height': 2}, {'x': 5, 'y': 5, 'width': 2, 'height': 1}, {'x': 4, 'y': 1, 'width': 1, 'height': 2}, {'x': 3, 'y': 3, 'width': 2, 'height': 1}, {'x': 4, 'y': 4, 'width': 1, 'height': 2}]","[[True, True, True, True, True, True, True, True, True, True], [True, True, True, True, True, True, True, True, True, True], [True, True, True, True, True, True, True, True, True, True], [False, True, True, False, True, True, True, True, True, True], [False, False, False, False, False, False, True, True, True, True], [False, True, True, True, True, False, True, True, True, True], [False, False, False, False, False, False, True, True, True, True], [True, True, True, True, True, True, True, True, True, True], [True, True, True, True, True, True, True, True, True, True], [True, True, True, True, True, True, True, True, True, True], [True, True, True, True, True, True, True, True, True, True], [True, True, True, True, True, True, True, True, True, True]]",trial_end,perfect-reconstruction-translation,147371.0,0.0,3.0,,,,,
49,637e7eedc178f27685c4f7e0,1669234195351.0,,build,"{'blocks': [{'x': 0, 'y': 0, 'height': 1, 'width': 2}, {'x': 0, 'y': 1, 'height': 2, 'width': 1}, {'x': 0, 'y': 3, 'height': 1, 'width': 2}, {'x': 1, 'y': 4, 'height': 2, 'width': 1}, {'x': 2, 'y': 0, 'height': 1, 'width': 2}, {'x': 2, 'y': 1, 'height': 2, 'width': 1}, {'x': 2, 'y': 3, 'height': 2, 'width': 1}, {'x': 2, 'y': 5, 'height': 1, 'width': 2}]}",,12,0000000000000000011100000110000011100000101000001010000011110000,talls_100_125,tall_100,wide_014,tall_125,wide_011,talls_100_125,talls_100_125,block-tower-building,14,854037,0.0-14.0,block_construction_build_components,build_components_pilot_2,60425a37f2994f0e28bf29da,0953-ddcb856a-a699-47a3-8f7d-700ee645c217,Prolific,trial_end,"{'new': 'm', 'old': 'z'}",1669234403305.0,851248.0,"[{'x': 4, 'y': 0, 'width': 2, 'height': 1}, {'x': 6, 'y': 0, 'width': 2, 'height': 1}, {'x': 4, 'y': 1, 'width': 1, 'height': 2}, {'x': 6, 'y': 1, 'width': 1, 'height': 2}, {'x': 6, 'y': 3, 'width': 1, 'height': 2}, {'x': 4, 'y': 3, 'width': 2, 'height': 1}, {'x': 6, 'y': 5, 'width': 2, 'height': 1}, {'x': 5, 'y': 4, 'width': 1, 'height': 2}]","[[True, True, True, True, True, True, True, True, True, True], [True, True, True, True, True, True, True, True, True, True], [True, True, True, True, True, True, True, True, True, True], [True, True, True, True, True, True, True, True, True, True], [False, False, False, False, True, True, True, True, True, True], [False, True, True, False, False, False, True, True, True, True], [False, False, False, False, False, False, True, True, True, True], [False, True, True, True, True, False, True, True, True, True], [True, True, True, True, True, True, True, True, True, True], [True, True, True, True, True, True, True, True, True, True], [True, True, True, True, True, True, True, True, True, True], [True, True, True, True, True, True, True, True, True, True]]",trial_end,perfect-reconstruction-translation,207954.0,0.0,7.0,,,,,
50,637e7f19c178f27685c4f7f9,1669234340730.0,,build,"{'blocks': [{'x': 1, 'y': 0, 'height': 2, 'width': 1}, {'x': 0, 'y': 2, 'height': 1, 'width': 2}, {'x': 1, 'y': 3, 'height': 2, 'width': 1}, {'x': 0, 'y': 5, 'height': 1, 'width': 2}, {'x': 2, 'y': 0, 'height': 1, 'width': 2}, {'x': 3, 'y': 1, 'height': 2, 'width': 1}, {'x': 3, 'y': 3, 'height': 2, 'width': 1}, {'x': 2, 'y': 5, 'height': 1, 'width': 2}]}",,4,0000000000000000111100000101000001010000110100000101000001110000,talls_121_118,tall_121,wide_018,tall_118,wide_022,talls_121_118,talls_121_118,block-tower-building,6,836119,0.0-6.0,block_construction_build_components,build_components_pilot_2,6034ed9d644c203f4f84c343,2794-f6f0ee0b-000f-4cc1-89ed-e562cd61f3e2,Prolific,trial_end,"{'new': 'm', 'old': 'z'}",1669234452015.0,832803.0,"[{'x': 5, 'y': 0, 'width': 2, 'height': 1}, {'x': 4, 'y': 0, 'width': 1, 'height': 2}, {'x': 3, 'y': 2, 'width': 2, 'height': 1}, {'x': 4, 'y': 3, 'width': 1, 'height': 2}, {'x': 3, 'y': 5, 'width': 2, 'height': 1}, {'x': 6, 'y': 1, 'width': 1, 'height': 2}, {'x': 6, 'y': 3, 'width': 1, 'height': 2}, {'x': 5, 'y': 5, 'width': 2, 'height': 1}]","[[True, True, True, True, True, True, True, True, True, True], [True, True, True, True, True, True, True, True, True, True], [True, True, True, True, True, True, True, True, True, True], [True, True, False, True, True, False, True, True, True, True], [False, False, False, False, False, False, True, True, True, True], [False, True, True, True, True, False, True, True, True, True], [False, False, False, False, False, False, True, True, True, True], [True, True, True, True, True, True, True, True, True, True], [True, True, True, True, True, True, True, True, True, True], [True, True, True, True, True, True, True, True, True, True], [True, True, True, True, True, True, True, True, True, True], [True, True, True, True, True, True, True, True, True, True]]",trial_end,perfect-reconstruction-translation,111285.0,0.0,1.0,,,,,
51,637e7f26c178f27685c4f805,1669234093886.0,,build,"{'blocks': [{'x': 0, 'y': 0, 'height': 2, 'width': 1}, {'x': 0, 'y': 2, 'height': 1, 'width': 2}, {'x': 0, 'y': 3, 'height': 1, 'width': 2}, {'x': 0, 'y': 4, 'height': 2, 'width': 1}, {'x': 2, 'y': 0, 'height': 1, 'width': 2}, {'x': 2, 'y': 1, 'height': 2, 'width': 1}, {'x': 2, 'y': 3, 'height': 1, 'width': 2}, {'x': 2, 'y': 4, 'height': 2, 'width': 1}]}",,12,0000000000000000101000001010000011110000111000001010000010110000,talls_116_114,tall_116,wide_020,tall_114,wide_014,talls_116_114,talls_116_114,block-tower-building,14,1138684,0.0-14.0,block_construction_build_components,build_components_pilot_2,5ea980e8a5e7d908472c2fb0,9967-0409bbad-ac1c-46a8-8b0b-9f9a0deff968,Prolific,trial_end,"{'new': 'z', 'old': 'm'}",1669234463870.0,1135446.0,"[{'x': 4, 'y': 0, 'width': 1, 'height': 2}, {'x': 4, 'y': 2, 'width': 2, 'height': 1}, {'x': 6, 'y': 0, 'width': 2, 'height': 1}, {'x': 6, 'y': 1, 'width': 1, 'height': 2}, {'x': 6, 'y': 3, 'width': 2, 'height': 1}, {'x': 4, 'y': 3, 'width': 2, 'height': 1}, {'x': 4, 'y': 4, 'width': 1, 'height': 2}, {'x': 6, 'y': 4, 'width': 1, 'height': 2}]","[[True, True, True, True, True, True, True, True, True, True], [True, True, True, True, True, True, True, True, True, True], [True, True, True, True, True, True, True, True, True, True], [True, True, True, True, True, True, True, True, True, True], [False, False, False, False, False, False, True, True, True, True], [True, True, False, False, True, True, True, True, True, True], [False, False, False, False, False, False, True, True, True, True], [False, True, True, False, True, True, True, True, True, True], [True, True, True, True, True, True, True, True, True, True], [True, True, True, True, True, True, True, True, True, True], [True, True, True, True, True, True, True, True, True, True], [True, True, True, True, True, True, True, True, True, True]]",trial_end,perfect-reconstruction-translation,369984.0,0.0,0.0,,,,,
52,637e7f54c178f27685c4f81c,1669234456755.0,,build,"{'blocks': [{'x': 0, 'y': 0, 'height': 2, 'width': 1}, {'x': 0, 'y': 2, 'height': 1, 'width': 2}, {'x': 0, 'y': 3, 'height': 2, 'width': 1}, {'x': 0, 'y': 5, 'height': 1, 'width': 2}, {'x': 3, 'y': 0, 'height': 2, 'width': 1}, {'x': 2, 'y': 2, 'height': 1, 'width': 2}, {'x': 2, 'y': 3, 'height': 1, 'width': 2}, {'x': 2, 'y': 4, 'height': 2, 'width': 1}]}",,5,0000000000000000111000001010000010110000111100001001000010010000,talls_127_115,tall_127,wide_024,tall_115,wide_020,talls_127_115,talls_127_115,block-tower-building,7,895478,0.0-7.0,block_construction_build_components,build_components_pilot_2,6034ed9d644c203f4f84c343,2794-f6f0ee0b-000f-4cc1-89ed-e562cd61f3e2,Prolific,trial_end,"{'new': 'm', 'old': 'z'}",1669234511314.0,892102.0,"[{'x': 3, 'y': 0, 'width': 1, 'height': 2}, {'x': 3, 'y': 2, 'width': 2, 'height': 1}, {'x': 3, 'y': 3, 'width': 1, 'height': 2}, {'x': 3, 'y': 5, 'width': 2, 'height': 1}, {'x': 6, 'y': 0, 'width': 1, 'height': 2}, {'x': 5, 'y': 2, 'width': 2, 'height': 1}, {'x': 5, 'y': 3, 'width': 2, 'height': 1}, {'x': 5, 'y': 4, 'width': 1, 'height': 2}]","[[True, True, True, True, True, True, True, True, True, True], [True, True, True, True, True, True, True, True, True, True], [True, True, True, True, True, True, True, True, True, True], [False, False, False, False, False, False, True, True, True, True], [True, True, False, True, True, False, True, True, True, True], [True, True, False, False, False, False, True, True, True, True], [False, False, False, False, True, True, True, True, True, True], [True, True, True, True, True, True, True, True, True, True], [True, True, True, True, True, True, True, True, True, True], [True, True, True, True, True, True, True, True, True, True], [True, True, True, True, True, True, True, True, True, True], [True, True, True, True, True, True, True, True, True, True]]",trial_end,perfect-reconstruction-translation,54559.0,0.0,0.0,,,,,
53,637e7f65c178f27685c4f821,1669234516148.0,1669234531215.0,view,"{'blocks': [{'x': 0, 'y': 0, 'height': 1, 'width': 2}, {'x': 0, 'y': 1, 'height': 2, 'width': 1}, {'x': 0, 'y': 3, 'height': 1, 'width': 2}, {'x': 1, 'y': 4, 'height': 2, 'width': 1}, {'x': 2, 'y': 0, 'height': 1, 'width': 2}, {'x': 2, 'y': 1, 'height': 2, 'width': 1}, {'x': 2, 'y': 3, 'height': 2, 'width': 1}, {'x': 2, 'y': 5, 'height': 1, 'width': 2}]}",,6,0000000000000000011100000110000011100000101000001010000011110000,talls_100_125,tall_100,wide_014,tall_125,wide_011,talls_100_125,talls_100_125,block-tower-viewing,8,912318,0.0-8.0,block_construction_build_components,build_components_pilot_2,6034ed9d644c203f4f84c343,2794-f6f0ee0b-000f-4cc1-89ed-e562cd61f3e2,Prolific,trial_end,"{'new': 'm', 'old': 'z'}",,,,,,,,,,,,,,
54,637e7f76c178f27685c4f826,1669234532968.0,1669234548078.0,view,"{'blocks': [{'x': 0, 'y': 0, 'height': 1, 'width': 2}, {'x': 1, 'y': 1, 'height': 2, 'width': 1}, {'x': 0, 'y': 3, 'height': 1, 'width': 2}, {'x': 1, 'y': 4, 'height': 2, 'width': 1}, {'x': 2, 'y': 0, 'height': 1, 'width': 2}, {'x': 2, 'y': 1, 'height': 2, 'width': 1}, {'x': 2, 'y': 3, 'height': 1, 'width': 2}, {'x': 3, 'y': 4, 'height': 2, 'width': 1}]}",,7,0000000000000000010100000101000011110000011000000110000011110000,talls_097_100,tall_097,wide_008,tall_100,wide_006,talls_097_100,talls_097_100,block-tower-viewing,9,929153,0.0-9.0,block_construction_build_components,build_components_pilot_2,6034ed9d644c203f4f84c343,2794-f6f0ee0b-000f-4cc1-89ed-e562cd61f3e2,Prolific,trial_end,"{'new': 'm', 'old': 'z'}",,,,,,,,,,,,,,
55,637e7f95c178f27685c4f838,1669234549809.0,,build,"{'blocks': [{'x': 1, 'y': 0, 'height': 2, 'width': 1}, {'x': 0, 'y': 2, 'height': 1, 'width': 2}, {'x': 0, 'y': 3, 'height': 2, 'width': 1}, {'x': 0, 'y': 5, 'height': 1, 'width': 2}, {'x': 2, 'y': 0, 'height': 2, 'width': 1}, {'x': 2, 'y': 2, 'height': 1, 'width': 2}, {'x': 3, 'y': 3, 'height': 2, 'width': 1}, {'x': 2, 'y': 5, 'height': 1, 'width': 2}]}",,8,0000000000000000111100001001000010010000111100000110000001100000,talls_126_122,tall_126,wide_023,tall_122,wide_024,talls_126_122,talls_126_122,block-tower-building,10,959831,0.0-10.0,block_construction_build_components,build_components_pilot_2,6034ed9d644c203f4f84c343,2794-f6f0ee0b-000f-4cc1-89ed-e562cd61f3e2,Prolific,trial_end,"{'new': 'm', 'old': 'z'}",1669234575613.0,956401.0,"[{'x': 5, 'y': 0, 'width': 1, 'height': 2}, {'x': 6, 'y': 0, 'width': 1, 'height': 2}, {'x': 6, 'y': 2, 'width': 2, 'height': 1}, {'x': 4, 'y': 2, 'width': 2, 'height': 1}, {'x': 4, 'y': 3, 'width': 1, 'height': 2}, {'x': 4, 'y': 5, 'width': 2, 'height': 1}, {'x': 7, 'y': 3, 'width': 1, 'height': 2}, {'x': 6, 'y': 5, 'width': 2, 'height': 1}]","[[True, True, True, True, True, True, True, True, True, True], [True, True, True, True, True, True, True, True, True, True], [True, True, True, True, True, True, True, True, True, True], [True, True, True, True, True, True, True, True, True, True], [True, True, False, False, False, False, True, True, True, True], [False, False, False, True, True, False, True, True, True, True], [False, False, False, True, True, False, True, True, True, True], [True, True, False, False, False, False, True, True, True, True], [True, True, True, True, True, True, True, True, True, True], [True, True, True, True, True, True, True, True, True, True], [True, True, True, True, True, True, True, True, True, True], [True, True, True, True, True, True, True, True, True, True]]",trial_end,perfect-reconstruction-translation,25804.0,0.0,0.0,,,,,
56,637e7fa6c178f27685c4f83e,1669234580567.0,1669234595660.0,view,"{'blocks': [{'x': 0, 'y': 0, 'height': 2, 'width': 1}, {'x': 0, 'y': 2, 'height': 1, 'width': 2}, {'x': 0, 'y': 3, 'height': 1, 'width': 2}, {'x': 1, 'y': 4, 'height': 2, 'width': 1}, {'x': 3, 'y': 0, 'height': 2, 'width': 1}, {'x': 2, 'y': 2, 'height': 1, 'width': 2}, {'x': 2, 'y': 3, 'height': 2, 'width': 1}, {'x': 2, 'y': 5, 'height': 1, 'width': 2}]}",,9,0000000000000000011100000110000011100000111100001001000010010000,talls_102_126,tall_102,wide_024,tall_126,wide_011,talls_102_126,talls_102_126,block-tower-viewing,11,976811,0.0-11.0,block_construction_build_components,build_components_pilot_2,6034ed9d644c203f4f84c343,2794-f6f0ee0b-000f-4cc1-89ed-e562cd61f3e2,Prolific,trial_end,"{'new': 'm', 'old': 'z'}",,,,,,,,,,,,,,
57,637e7fb6c178f27685c4f840,1669234597541.0,1669234612633.0,view,"{'blocks': [{'x': 0, 'y': 0, 'height': 2, 'width': 1}, {'x': 0, 'y': 2, 'height': 1, 'width': 2}, {'x': 0, 'y': 3, 'height': 1, 'width': 2}, {'x': 0, 'y': 4, 'height': 2, 'width': 1}, {'x': 2, 'y': 0, 'height': 1, 'width': 2}, {'x': 2, 'y': 1, 'height': 2, 'width': 1}, {'x': 2, 'y': 3, 'height': 1, 'width': 2}, {'x': 2, 'y': 4, 'height': 2, 'width': 1}]}",,10,0000000000000000101000001010000011110000111000001010000010110000,talls_116_114,tall_116,wide_020,tall_114,wide_014,talls_116_114,talls_116_114,block-tower-viewing,12,993731,0.0-12.0,block_construction_build_components,build_components_pilot_2,6034ed9d644c203f4f84c343,2794-f6f0ee0b-000f-4cc1-89ed-e562cd61f3e2,Prolific,trial_end,"{'new': 'm', 'old': 'z'}",,,,,,,,,,,,,,
58,637e7ff3c178f27685c4f84a,1669234614385.0,,build,"{'blocks': [{'x': 1, 'y': 0, 'height': 2, 'width': 1}, {'x': 0, 'y': 2, 'height': 1, 'width': 2}, {'x': 1, 'y': 3, 'height': 2, 'width': 1}, {'x': 0, 'y': 5, 'height': 1, 'width': 2}, {'x': 3, 'y': 0, 'height': 2, 'width': 1}, {'x': 2, 'y': 2, 'height': 1, 'width': 2}, {'x': 2, 'y': 3, 'height': 1, 'width': 2}, {'x': 3, 'y': 4, 'height': 2, 'width': 1}]}",,11,0000000000000000110100000101000001110000111100000101000001010000,talls_121_101,tall_121,wide_022,tall_101,wide_018,talls_121_101,talls_121_101,block-tower-building,13,1053863,0.0-13.0,block_construction_build_components,build_components_pilot_2,6034ed9d644c203f4f84c343,2794-f6f0ee0b-000f-4cc1-89ed-e562cd61f3e2,Prolific,trial_end,"{'new': 'm', 'old': 'z'}",1669234669570.0,1050358.0,"[{'x': 5, 'y': 0, 'width': 1, 'height': 2}, {'x': 4, 'y': 2, 'width': 2, 'height': 1}, {'x': 7, 'y': 0, 'width': 1, 'height': 2}, {'x': 6, 'y': 2, 'width': 2, 'height': 1}, {'x': 6, 'y': 3, 'width': 2, 'height': 1}, {'x': 5, 'y': 3, 'width': 1, 'height': 2}, {'x': 4, 'y': 5, 'width': 2, 'height': 1}, {'x': 7, 'y': 4, 'width': 1, 'height': 2}]","[[True, True, True, True, True, True, True, True, True, True], [True, True, True, True, True, True, True, True, True, True], [True, True, True, True, True, True, True, True, True, True], [True, True, True, True, True, True, True, True, True, True], [True, True, False, True, True, False, True, True, True, True], [False, False, False, False, False, False, True, True, True, True], [True, True, False, False, True, True, True, True, True, True], [False, False, False, False, False, False, True, True, True, True], [True, True, True, True, True, True, True, True, True, True], [True, True, True, True, True, True, True, True, True, True], [True, True, True, True, True, True, True, True, True, True], [True, True, True, True, True, True, True, True, True, True]]",trial_end,perfect-reconstruction-translation,55185.0,0.0,0.0,,,,,
59,637e8040c178f27685c4f85b,1669234674577.0,,build,"{'blocks': [{'x': 0, 'y': 0, 'height': 1, 'width': 2}, {'x': 0, 'y': 1, 'height': 2, 'width': 1}, {'x': 0, 'y': 3, 'height': 1, 'width': 2}, {'x': 1, 'y': 4, 'height': 2, 'width': 1}, {'x': 2, 'y': 0, 'height': 1, 'width': 2}, {'x': 3, 'y': 1, 'height': 2, 'width': 1}, {'x': 2, 'y': 3, 'height': 1, 'width': 2}, {'x': 3, 'y': 4, 'height': 2, 'width': 1}]}",,12,0000000000000000010100000101000011110000100100001001000011110000,talls_100_097,tall_100,wide_013,tall_097,wide_006,talls_100_097,talls_100_097,block-tower-building,14,1131353,0.0-14.0,block_construction_build_components,build_components_pilot_2,6034ed9d644c203f4f84c343,2794-f6f0ee0b-000f-4cc1-89ed-e562cd61f3e2,Prolific,trial_end,"{'new': 'm', 'old': 'z'}",1669234747015.0,1127803.0,"[{'x': 4, 'y': 0, 'width': 2, 'height': 1}, {'x': 6, 'y': 0, 'width': 2, 'height': 1}, {'x': 4, 'y': 1, 'width': 1, 'height': 2}, {'x': 4, 'y': 3, 'width': 2, 'height': 1}, {'x': 5, 'y': 4, 'width': 1, 'height': 2}, {'x': 7, 'y': 1, 'width': 1, 'height': 2}, {'x': 6, 'y': 3, 'width': 2, 'height': 1}, {'x': 7, 'y': 4, 'width': 1, 'height': 2}]","[[True, True, True, True, True, True, True, True, True, True], [True, True, True, True, True, True, True, True, True, True], [True, True, True, True, True, True, True, True, True, True], [True, True, True, True, True, True, True, True, True, True], [False, False, False, False, True, True, True, True, True, True], [False, True, True, False, False, False, True, True, True, True], [False, True, True, False, True, True, True, True, True, True], [False, False, False, False, False, False, True, True, True, True], [True, True, True, True, True, True, True, True, True, True], [True, True, True, True, True, True, True, True, True, True], [True, True, True, True, True, True, True, True, True, True], [True, True, True, True, True, True, True, True, True, True]]",trial_end,perfect-reconstruction-translation,72439.0,0.0,2.0,,,,,
60,637e89b3c178f27685c4f88c,1669237161717.0,1669237176791.0,view,"{'blocks': [{'x': 0, 'y': 0, 'height': 1, 'width': 2}, {'x': 0, 'y': 1, 'height': 2, 'width': 1}, {'x': 0, 'y': 3, 'height': 1, 'width': 2}, {'x': 1, 'y': 4, 'height': 2, 'width': 1}, {'x': 2, 'y': 0, 'height': 1, 'width': 2}, {'x': 3, 'y': 1, 'height': 2, 'width': 1}, {'x': 2, 'y': 3, 'height': 1, 'width': 2}, {'x': 3, 'y': 4, 'height': 2, 'width': 1}]}",,1,0000000000000000010100000101000011110000100100001001000011110000,talls_100_097,tall_100,wide_013,tall_097,wide_006,talls_100_097,talls_100_097,block-tower-viewing,3,51957,0.0-3.0,block_construction_build_components,build_components_pilot_2,5efcf31ebc3f2011d263bddb,6609-cf2f0909-c6bd-40e3-b7ca-825d0ad231a8,Prolific,trial_end,"{'new': 'z', 'old': 'm'}",,,,,,,,,,,,,,
61,637e89c7c178f27685c4f899,1669237174306.0,1669237189362.0,view,"{'blocks': [{'x': 1, 'y': 0, 'height': 2, 'width': 1}, {'x': 0, 'y': 2, 'height': 1, 'width': 2}, {'x': 1, 'y': 3, 'height': 2, 'width': 1}, {'x': 0, 'y': 5, 'height': 1, 'width': 2}, {'x': 3, 'y': 0, 'height': 2, 'width': 1}, {'x': 2, 'y': 2, 'height': 1, 'width': 2}, {'x': 2, 'y': 3, 'height': 1, 'width': 2}, {'x': 3, 'y': 4, 'height': 2, 'width': 1}]}",,1,0000000000000000110100000101000001110000111100000101000001010000,talls_121_101,tall_121,wide_022,tall_101,wide_018,talls_121_101,talls_121_101,block-tower-viewing,3,68607,0.0-3.0,block_construction_build_components,build_components_pilot_2,577bef95908f1d0001c392ef,3806-82064de5-b67c-4f0f-8e47-d90867077a5a,Prolific,trial_end,"{'new': 'z', 'old': 'm'}",,,,,,,,,,,,,,
62,637e89d2c178f27685c4f8a2,1669237185926.0,1669237200974.0,view,"{'blocks': [{'x': 0, 'y': 0, 'height': 1, 'width': 2}, {'x': 1, 'y': 1, 'height': 2, 'width': 1}, {'x': 0, 'y': 3, 'height': 1, 'width': 2}, {'x': 0, 'y': 4, 'height': 2, 'width': 1}, {'x': 2, 'y': 0, 'height': 2, 'width': 1}, {'x': 2, 'y': 2, 'height': 1, 'width': 2}, {'x': 2, 'y': 3, 'height': 2, 'width': 1}, {'x': 2, 'y': 5, 'height': 1, 'width': 2}]}",,1,0000000000000000101100001010000011100000011100000110000011100000,talls_111_127,tall_111,wide_011,tall_127,wide_015,talls_111_127,talls_111_127,block-tower-viewing,3,66237,0.0-3.0,block_construction_build_components,build_components_pilot_2,610ce644c22d6b8fbd231465,6570-5e48e4cf-45a6-431e-a1ac-ebf2de10f370,Prolific,trial_end,"{'new': 'm', 'old': 'z'}",,,,,,,,,,,,,,
63,637e89d8c178f27685c4f8a6,1669237190978.0,1669237205992.0,view,"{'blocks': [{'x': 0, 'y': 0, 'height': 1, 'width': 2}, {'x': 0, 'y': 1, 'height': 2, 'width': 1}, {'x': 0, 'y': 3, 'height': 1, 'width': 2}, {'x': 1, 'y': 4, 'height': 2, 'width': 1}, {'x': 2, 'y': 0, 'height': 1, 'width': 2}, {'x': 2, 'y': 1, 'height': 2, 'width': 1}, {'x': 2, 'y': 3, 'height': 2, 'width': 1}, {'x': 2, 'y': 5, 'height': 1, 'width': 2}]}",,2,0000000000000000011100000110000011100000101000001010000011110000,talls_100_125,tall_100,wide_014,tall_125,wide_011,talls_100_125,talls_100_125,block-tower-viewing,4,85241,0.0-4.0,block_construction_build_components,build_components_pilot_2,577bef95908f1d0001c392ef,3806-82064de5-b67c-4f0f-8e47-d90867077a5a,Prolific,trial_end,"{'new': 'z', 'old': 'm'}",,,,,,,,,,,,,,
64,637e89d9c178f27685c4f8a7,1669237194648.0,1669237209664.0,view,"{'blocks': [{'x': 1, 'y': 0, 'height': 2, 'width': 1}, {'x': 0, 'y': 2, 'height': 1, 'width': 2}, {'x': 1, 'y': 3, 'height': 2, 'width': 1}, {'x': 0, 'y': 5, 'height': 1, 'width': 2}, {'x': 3, 'y': 0, 'height': 2, 'width': 1}, {'x': 2, 'y': 2, 'height': 1, 'width': 2}, {'x': 2, 'y': 3, 'height': 1, 'width': 2}, {'x': 3, 'y': 4, 'height': 2, 'width': 1}]}",,1,0000000000000000110100000101000001110000111100000101000001010000,talls_121_101,tall_121,wide_022,tall_101,wide_018,talls_121_101,talls_121_101,block-tower-viewing,3,69581,0.0-3.0,block_construction_build_components,build_components_pilot_2,62a43fb227bc92947efcd049,8127-a42df35b-ef39-43df-b35c-75ba97391471,Prolific,trial_end,"{'new': 'z', 'old': 'm'}",,,,,,,,,,,,,,
65,637e89e8c178f27685c4f8b3,1669237207610.0,1669237222624.0,view,"{'blocks': [{'x': 0, 'y': 0, 'height': 1, 'width': 2}, {'x': 1, 'y': 1, 'height': 2, 'width': 1}, {'x': 0, 'y': 3, 'height': 1, 'width': 2}, {'x': 1, 'y': 4, 'height': 2, 'width': 1}, {'x': 2, 'y': 0, 'height': 1, 'width': 2}, {'x': 3, 'y': 1, 'height': 2, 'width': 1}, {'x': 3, 'y': 3, 'height': 2, 'width': 1}, {'x': 2, 'y': 5, 'height': 1, 'width': 2}]}",,3,0000000000000000011100000101000011010000010100000101000011110000,talls_097_118,tall_097,wide_006,tall_118,wide_010,talls_097_118,talls_097_118,block-tower-viewing,5,101876,0.0-5.0,block_construction_build_components,build_components_pilot_2,577bef95908f1d0001c392ef,3806-82064de5-b67c-4f0f-8e47-d90867077a5a,Prolific,trial_end,"{'new': 'z', 'old': 'm'}",,,,,,,,,,,,,,
66,637e89eac178f27685c4f8b5,1669237211289.0,1669237226302.0,view,"{'blocks': [{'x': 0, 'y': 0, 'height': 1, 'width': 2}, {'x': 1, 'y': 1, 'height': 2, 'width': 1}, {'x': 0, 'y': 3, 'height': 1, 'width': 2}, {'x': 1, 'y': 4, 'height': 2, 'width': 1}, {'x': 2, 'y': 0, 'height': 1, 'width': 2}, {'x': 3, 'y': 1, 'height': 2, 'width': 1}, {'x': 3, 'y': 3, 'height': 2, 'width': 1}, {'x': 2, 'y': 5, 'height': 1, 'width': 2}]}",,2,0000000000000000011100000101000011010000010100000101000011110000,talls_097_118,tall_097,wide_006,tall_118,wide_010,talls_097_118,talls_097_118,block-tower-viewing,4,86210,0.0-4.0,block_construction_build_components,build_components_pilot_2,62a43fb227bc92947efcd049,8127-a42df35b-ef39-43df-b35c-75ba97391471,Prolific,trial_end,"{'new': 'z', 'old': 'm'}",,,,,,,,,,,,,,
67,637e89f2c178f27685c4f8bd,1669237218477.0,1669237233530.0,view,"{'blocks': [{'x': 1, 'y': 0, 'height': 2, 'width': 1}, {'x': 0, 'y': 2, 'height': 1, 'width': 2}, {'x': 0, 'y': 3, 'height': 2, 'width': 1}, {'x': 0, 'y': 5, 'height': 1, 'width': 2}, {'x': 2, 'y': 0, 'height': 2, 'width': 1}, {'x': 2, 'y': 2, 'height': 1, 'width': 2}, {'x': 3, 'y': 3, 'height': 2, 'width': 1}, {'x': 2, 'y': 5, 'height': 1, 'width': 2}]}",,1,0000000000000000111100001001000010010000111100000110000001100000,talls_126_122,tall_126,wide_023,tall_122,wide_024,talls_126_122,talls_126_122,block-tower-viewing,3,106217,0.0-3.0,block_construction_build_components,build_components_pilot_2,58c8497430c4cf0001ce9caf,2872-692b2ec2-5211-42e3-a1a9-b9531a155e22,Prolific,trial_end,"{'new': 'z', 'old': 'm'}",,,,,,,,,,,,,,
68,637e89fbc178f27685c4f8c3,1669237227921.0,1669237242931.0,view,"{'blocks': [{'x': 0, 'y': 0, 'height': 1, 'width': 2}, {'x': 1, 'y': 1, 'height': 2, 'width': 1}, {'x': 0, 'y': 3, 'height': 1, 'width': 2}, {'x': 0, 'y': 4, 'height': 2, 'width': 1}, {'x': 2, 'y': 0, 'height': 1, 'width': 2}, {'x': 2, 'y': 1, 'height': 2, 'width': 1}, {'x': 2, 'y': 3, 'height': 2, 'width': 1}, {'x': 2, 'y': 5, 'height': 1, 'width': 2}]}",,3,0000000000000000101100001010000011100000011000000110000011110000,talls_111_125,tall_111,wide_008,tall_125,wide_015,talls_111_125,talls_111_125,block-tower-viewing,5,102838,0.0-5.0,block_construction_build_components,build_components_pilot_2,62a43fb227bc92947efcd049,8127-a42df35b-ef39-43df-b35c-75ba97391471,Prolific,trial_end,"{'new': 'z', 'old': 'm'}",,,,,,,,,,,,,,
69,637e8a0cc178f27685c4f8d6,1669237178410.0,,build,"{'blocks': [{'x': 1, 'y': 0, 'height': 2, 'width': 1}, {'x': 0, 'y': 2, 'height': 1, 'width': 2}, {'x': 0, 'y': 3, 'height': 1, 'width': 2}, {'x': 0, 'y': 4, 'height': 2, 'width': 1}, {'x': 3, 'y': 0, 'height': 2, 'width': 1}, {'x': 2, 'y': 2, 'height': 1, 'width': 2}, {'x': 2, 'y': 3, 'height': 1, 'width': 2}, {'x': 3, 'y': 4, 'height': 2, 'width': 1}]}",,2,0000000000000000100100001001000011110000111100000101000001010000,talls_115_101,tall_115,wide_022,tall_101,wide_013,talls_115_101,talls_115_101,block-tower-building,4,141300,0.0-4.0,block_construction_build_components,build_components_pilot_2,5efcf31ebc3f2011d263bddb,6609-cf2f0909-c6bd-40e3-b7ca-825d0ad231a8,Prolific,trial_end,"{'new': 'z', 'old': 'm'}",1669237262991.0,138593.0,"[{'x': 4, 'y': 0, 'width': 1, 'height': 2}, {'x': 6, 'y': 0, 'width': 1, 'height': 2}, {'x': 5, 'y': 2, 'width': 2, 'height': 1}, {'x': 3, 'y': 2, 'width': 2, 'height': 1}, {'x': 5, 'y': 3, 'width': 2, 'height': 1}, {'x': 3, 'y': 3, 'width': 2, 'height': 1}, {'x': 3, 'y': 4, 'width': 1, 'height': 2}, {'x': 6, 'y': 4, 'width': 1, 'height': 2}]","[[True, True, True, True, True, True, True, True, True, True], [True, True, True, True, True, True, True, True, True, True], [True, True, True, True, True, True, True, True, True, True], [True, True, False, False, False, False, True, True, True, True], [False, False, False, False, True, True, True, True, True, True], [True, True, False, False, True, True, True, True, True, True], [False, False, False, False, False, False, True, True, True, True], [True, True, True, True, True, True, True, True, True, True], [True, True, True, True, True, True, True, True, True, True], [True, True, True, True, True, True, True, True, True, True], [True, True, True, True, True, True, True, True, True, True], [True, True, True, True, True, True, True, True, True, True]]",trial_end,perfect-reconstruction-translation,84581.0,0.0,1.0,,,,,
70,637e8a21c178f27685c4f8fe,1669237202579.0,,build,"{'blocks': [{'x': 0, 'y': 0, 'height': 1, 'width': 2}, {'x': 1, 'y': 1, 'height': 2, 'width': 1}, {'x': 0, 'y': 3, 'height': 1, 'width': 2}, {'x': 0, 'y': 4, 'height': 2, 'width': 1}, {'x': 2, 'y': 0, 'height': 1, 'width': 2}, {'x': 2, 'y': 1, 'height': 2, 'width': 1}, {'x': 2, 'y': 3, 'height': 2, 'width': 1}, {'x': 2, 'y': 5, 'height': 1, 'width': 2}]}",,2,0000000000000000101100001010000011100000011000000110000011110000,talls_111_125,tall_111,wide_008,tall_125,wide_015,talls_111_125,talls_111_125,block-tower-building,4,145041,0.0-4.0,block_construction_build_components,build_components_pilot_2,610ce644c22d6b8fbd231465,6570-5e48e4cf-45a6-431e-a1ac-ebf2de10f370,Prolific,trial_end,"{'new': 'm', 'old': 'z'}",1669237276760.0,141846.0,"[{'x': 7, 'y': 0, 'width': 2, 'height': 1}, {'x': 5, 'y': 0, 'width': 2, 'height': 1}, {'x': 6, 'y': 1, 'width': 2, 'height': 1}, {'x': 6, 'y': 2, 'width': 2, 'height': 1}, {'x': 5, 'y': 3, 'width': 2, 'height': 1}, {'x': 5, 'y': 4, 'width': 1, 'height': 2}, {'x': 7, 'y': 3, 'width': 1, 'height': 2}, {'x': 7, 'y': 5, 'width': 2, 'height': 1}]","[[True, True, True, True, True, True, True, True, True, True], [True, True, True, True, True, True, True, True, True, True], [True, True, True, True, True, True, True, True, True, True], [True, True, True, True, True, True, True, True, True, True], [True, True, True, True, True, True, True, True, True, True], [False, True, True, False, False, False, True, True, True, True], [False, False, False, False, True, True, True, True, True, True], [False, False, False, False, False, False, True, True, True, True], [False, True, True, True, True, False, True, True, True, True], [True, True, True, True, True, True, True, True, True, True], [True, True, True, True, True, True, True, True, True, True], [True, True, True, True, True, True, True, True, True, True]]",trial_end,perfect-reconstruction-translation,74181.0,0.0,1.0,,,,,
71,637e8a2bc178f27685c4f90c,1669237275190.0,1669237290217.0,view,"{'blocks': [{'x': 0, 'y': 0, 'height': 2, 'width': 1}, {'x': 0, 'y': 2, 'height': 1, 'width': 2}, {'x': 0, 'y': 3, 'height': 1, 'width': 2}, {'x': 1, 'y': 4, 'height': 2, 'width': 1}, {'x': 3, 'y': 0, 'height': 2, 'width': 1}, {'x': 2, 'y': 2, 'height': 1, 'width': 2}, {'x': 2, 'y': 3, 'height': 2, 'width': 1}, {'x': 2, 'y': 5, 'height': 1, 'width': 2}]}",,1,0000000000000000011100000110000011100000111100001001000010010000,talls_102_126,tall_102,wide_024,tall_126,wide_011,talls_102_126,talls_102_126,block-tower-viewing,3,138046,0.0-3.0,block_construction_build_components,build_components_pilot_2,5d456f55b2da940019185094,5669-979c82c8-7b36-4a71-970b-d30ab10c1ff8,Prolific,trial_end,"{'new': 'z', 'old': 'm'}",,,,,,,,,,,,,,
72,637e8a3bc178f27685c4f92a,1669237291829.0,1669237306836.0,view,"{'blocks': [{'x': 1, 'y': 0, 'height': 2, 'width': 1}, {'x': 0, 'y': 2, 'height': 1, 'width': 2}, {'x': 1, 'y': 3, 'height': 2, 'width': 1}, {'x': 0, 'y': 5, 'height': 1, 'width': 2}, {'x': 2, 'y': 0, 'height': 1, 'width': 2}, {'x': 3, 'y': 1, 'height': 2, 'width': 1}, {'x': 3, 'y': 3, 'height': 2, 'width': 1}, {'x': 2, 'y': 5, 'height': 1, 'width': 2}]}",,2,0000000000000000111100000101000001010000110100000101000001110000,talls_121_118,tall_121,wide_018,tall_118,wide_022,talls_121_118,talls_121_118,block-tower-viewing,4,154663,0.0-4.0,block_construction_build_components,build_components_pilot_2,5d456f55b2da940019185094,5669-979c82c8-7b36-4a71-970b-d30ab10c1ff8,Prolific,trial_end,"{'new': 'z', 'old': 'm'}",,,,,,,,,,,,,,
73,637e8a40c178f27685c4f935,1669237221287.0,,build,"{'blocks': [{'x': 1, 'y': 0, 'height': 2, 'width': 1}, {'x': 0, 'y': 2, 'height': 1, 'width': 2}, {'x': 0, 'y': 3, 'height': 1, 'width': 2}, {'x': 1, 'y': 4, 'height': 2, 'width': 1}, {'x': 2, 'y': 0, 'height': 1, 'width': 2}, {'x': 3, 'y': 1, 'height': 2, 'width': 1}, {'x': 2, 'y': 3, 'height': 1, 'width': 2}, {'x': 2, 'y': 4, 'height': 2, 'width': 1}]}",,1,0000000000000000011000000110000011110000110100000101000001110000,talls_101_111,tall_101,wide_018,tall_111,wide_008,talls_101_111,talls_101_111,block-tower-building,3,188933,0.0-3.0,block_construction_build_components,build_components_pilot_2,5f393ea7c5922348d36492ca,2834-a1c74060-0e56-4a05-91b8-5eb897b961a4,Prolific,trial_end,"{'new': 'z', 'old': 'm'}",1669237333810.0,185925.0,"[{'x': 5, 'y': 0, 'width': 1, 'height': 2}, {'x': 6, 'y': 0, 'width': 2, 'height': 1}, {'x': 4, 'y': 2, 'width': 2, 'height': 1}, {'x': 4, 'y': 3, 'width': 2, 'height': 1}, {'x': 7, 'y': 1, 'width': 1, 'height': 2}, {'x': 6, 'y': 3, 'width': 2, 'height': 1}, {'x': 5, 'y': 4, 'width': 1, 'height': 2}, {'x': 6, 'y': 4, 'width': 1, 'height': 2}]","[[True, True, True, True, True, True, True, True, True, True], [True, True, True, True, True, True, True, True, True, True], [True, True, True, True, True, True, True, True, True, True], [True, True, True, True, True, True, True, True, True, True], [True, True, False, False, True, True, True, True, True, True], [False, False, False, False, False, False, True, True, True, True], [False, True, True, False, False, False, True, True, True, True], [False, False, False, False, True, True, True, True, True, True], [True, True, True, True, True, True, True, True, True, True], [True, True, True, True, True, True, True, True, True, True], [True, True, True, True, True, True, True, True, True, True], [True, True, True, True, True, True, True, True, True, True]]",trial_end,perfect-reconstruction-translation,112523.0,0.0,1.0,,,,,
