,_id,trial_start_time,trial_finish_time,condition,stimulus,response,trial_num,block_str,tower_id,tower_A_tall_id,tower_A_wide_id,tower_B_tall_id,tower_B_wide_id,tower_id_tall,composite_id,trial_type,trial_index,time_elapsed,internal_node_id,experimentName,iterationName,workerID,gameID,studyLocation,datatype,timeAbsolute,timeRelative,blocks,discreteWorld,eventType,endReason,relative_time,rep,n_resets,absolute_time,total_recall_time,submitted_towers,concatenated_towers,n_towers
0,641ccc8a6e17e9023eee5e31,1679608954236.0,1679608969250.0,view,"{'blocks': [{'x': 0, 'y': 0, 'height': 2, 'width': 1}, {'x': 0, 'y': 2, 'height': 1, 'width': 2}, {'x': 0, 'y': 3, 'height': 1, 'width': 2}, {'x': 1, 'y': 4, 'height': 2, 'width': 1}, {'x': 3, 'y': 0, 'height': 2, 'width': 1}, {'x': 2, 'y': 2, 'height': 1, 'width': 2}, {'x': 2, 'y': 3, 'height': 2, 'width': 1}, {'x': 2, 'y': 5, 'height': 1, 'width': 2}]}",,1,0000000000000000011100000110000011100000111100001001000010010000,talls_102_126,tall_102,wide_024,tall_126,wide_011,talls_102_126,talls_102_126,block-tower-viewing,1,24146,0.0-1.0,block_construction_build_components,build_components_build_recall_prolific_pilot_6_towers,,6364-44d1a556-7969-4b9d-85ce-04fdf786ddcd,,trial_end,,,,,,,,,,,,,,
1,641ccc986e17e9023eee5e3b,1679608970858.0,,build,"{'blocks': [{'x': 0, 'y': 0, 'height': 1, 'width': 2}, {'x': 0, 'y': 1, 'height': 2, 'width': 1}, {'x': 0, 'y': 3, 'height': 1, 'width': 2}, {'x': 0, 'y': 4, 'height': 2, 'width': 1}, {'x': 2, 'y': 0, 'height': 1, 'width': 2}, {'x': 3, 'y': 1, 'height': 2, 'width': 1}, {'x': 2, 'y': 3, 'height': 1, 'width': 2}, {'x': 2, 'y': 4, 'height': 2, 'width': 1}]}",,2,0000000000000000101000001010000011110000100100001001000011110000,talls_114_111,tall_114,wide_013,tall_111,wide_014,talls_114_111,talls_114_111,block-tower-building-undo,2,38381,0.0-2.0,block_construction_build_components,build_components_build_recall_prolific_pilot_6_towers,,6364-44d1a556-7969-4b9d-85ce-04fdf786ddcd,,trial_end,1679608980473.0,34631.0,"[{'x': 6, 'y': 0, 'width': 2, 'height': 1}, {'x': 4, 'y': 0, 'width': 2, 'height': 1}, {'x': 4, 'y': 1, 'width': 1, 'height': 2}, {'x': 7, 'y': 1, 'width': 1, 'height': 2}, {'x': 4, 'y': 3, 'width': 2, 'height': 1}, {'x': 6, 'y': 3, 'width': 2, 'height': 1}, {'x': 4, 'y': 4, 'width': 1, 'height': 2}, {'x': 6, 'y': 4, 'width': 1, 'height': 2}]","[[True, True, True, True, True, True, True, True, True, True], [True, True, True, True, True, True, True, True, True, True], [True, True, True, True, True, True, True, True, True, True], [True, True, True, True, True, True, True, True, True, True], [False, False, False, False, False, False, True, True, True, True], [False, True, True, False, True, True, True, True, True, True], [False, True, True, False, False, False, True, True, True, True], [False, False, False, False, True, True, True, True, True, True], [True, True, True, True, True, True, True, True, True, True], [True, True, True, True, True, True, True, True, True, True], [True, True, True, True, True, True, True, True, True, True], [True, True, True, True, True, True, True, True, True, True]]",trial_end,perfect-reconstruction-translation,9615.0,0.0,0.0,,,,,
2,641ccca96e17e9023eee5e3c,1679608985095.0,1679609000098.0,view,"{'blocks': [{'x': 0, 'y': 0, 'height': 2, 'width': 1}, {'x': 0, 'y': 2, 'height': 1, 'width': 2}, {'x': 0, 'y': 3, 'height': 2, 'width': 1}, {'x': 0, 'y': 5, 'height': 1, 'width': 2}, {'x': 2, 'y': 0, 'height': 1, 'width': 2}, {'x': 2, 'y': 1, 'height': 2, 'width': 1}, {'x': 2, 'y': 3, 'height': 2, 'width': 1}, {'x': 2, 'y': 5, 'height': 1, 'width': 2}]}",,3,0000000000000000111100001010000010100000111000001010000010110000,talls_127_125,tall_127,wide_020,tall_125,wide_025,talls_127_125,talls_127_125,block-tower-viewing,3,54996,0.0-3.0,block_construction_build_components,build_components_build_recall_prolific_pilot_6_towers,,6364-44d1a556-7969-4b9d-85ce-04fdf786ddcd,,trial_end,,,,,,,,,,,,,,
3,641cccb96e17e9023eee5e3d,1679609001703.0,1679609016704.0,view,"{'blocks': [{'x': 0, 'y': 0, 'height': 1, 'width': 2}, {'x': 0, 'y': 1, 'height': 2, 'width': 1}, {'x': 0, 'y': 3, 'height': 1, 'width': 2}, {'x': 1, 'y': 4, 'height': 2, 'width': 1}, {'x': 2, 'y': 0, 'height': 1, 'width': 2}, {'x': 3, 'y': 1, 'height': 2, 'width': 1}, {'x': 2, 'y': 3, 'height': 1, 'width': 2}, {'x': 3, 'y': 4, 'height': 2, 'width': 1}]}",,4,0000000000000000010100000101000011110000100100001001000011110000,talls_100_097,tall_100,wide_013,tall_097,wide_006,talls_100_097,talls_100_097,block-tower-viewing,4,71604,0.0-4.0,block_construction_build_components,build_components_build_recall_prolific_pilot_6_towers,,6364-44d1a556-7969-4b9d-85ce-04fdf786ddcd,,trial_end,,,,,,,,,,,,,,
4,641cccc86e17e9023eee5e47,1679609018319.0,,build,"{'blocks': [{'x': 0, 'y': 0, 'height': 1, 'width': 2}, {'x': 1, 'y': 1, 'height': 2, 'width': 1}, {'x': 1, 'y': 3, 'height': 2, 'width': 1}, {'x': 0, 'y': 5, 'height': 1, 'width': 2}, {'x': 3, 'y': 0, 'height': 2, 'width': 1}, {'x': 2, 'y': 2, 'height': 1, 'width': 2}, {'x': 3, 'y': 3, 'height': 2, 'width': 1}, {'x': 2, 'y': 5, 'height': 1, 'width': 2}]}",,5,0000000000000000111100000101000001010000011100000101000011010000,talls_118_121,tall_118,wide_010,tall_121,wide_022,talls_118_121,talls_118_121,block-tower-building-undo,5,86599,0.0-5.0,block_construction_build_components,build_components_build_recall_prolific_pilot_6_towers,,6364-44d1a556-7969-4b9d-85ce-04fdf786ddcd,,trial_end,1679609028690.0,82848.0,"[{'x': 3, 'y': 0, 'width': 2, 'height': 1}, {'x': 4, 'y': 1, 'width': 1, 'height': 2}, {'x': 6, 'y': 0, 'width': 1, 'height': 2}, {'x': 5, 'y': 2, 'width': 2, 'height': 1}, {'x': 4, 'y': 3, 'width': 1, 'height': 2}, {'x': 6, 'y': 3, 'width': 1, 'height': 2}, {'x': 3, 'y': 5, 'width': 2, 'height': 1}, {'x': 5, 'y': 5, 'width': 2, 'height': 1}]","[[True, True, True, True, True, True, True, True, True, True], [True, True, True, True, True, True, True, True, True, True], [True, True, True, True, True, True, True, True, True, True], [False, True, True, True, True, False, True, True, True, True], [False, False, False, False, False, False, True, True, True, True], [True, True, False, True, True, False, True, True, True, True], [False, False, False, False, False, False, True, True, True, True], [True, True, True, True, True, True, True, True, True, True], [True, True, True, True, True, True, True, True, True, True], [True, True, True, True, True, True, True, True, True, True], [True, True, True, True, True, True, True, True, True, True], [True, True, True, True, True, True, True, True, True, True]]",trial_end,perfect-reconstruction-translation,10372.0,0.0,0.0,,,,,
5,641cccd96e17e9023eee5e51,1679609033310.0,,build,"{'blocks': [{'x': 0, 'y': 0, 'height': 1, 'width': 2}, {'x': 1, 'y': 1, 'height': 2, 'width': 1}, {'x': 0, 'y': 3, 'height': 1, 'width': 2}, {'x': 0, 'y': 4, 'height': 2, 'width': 1}, {'x': 2, 'y': 0, 'height': 2, 'width': 1}, {'x': 2, 'y': 2, 'height': 1, 'width': 2}, {'x': 2, 'y': 3, 'height': 2, 'width': 1}, {'x': 2, 'y': 5, 'height': 1, 'width': 2}]}",,6,0000000000000000101100001010000011100000011100000110000011100000,talls_111_127,tall_111,wide_011,tall_127,wide_015,talls_111_127,talls_111_127,block-tower-building-undo,6,103352,0.0-6.0,block_construction_build_components,build_components_build_recall_prolific_pilot_6_towers,,6364-44d1a556-7969-4b9d-85ce-04fdf786ddcd,,trial_end,1679609045441.0,99599.0,"[{'x': 3, 'y': 0, 'width': 2, 'height': 1}, {'x': 4, 'y': 1, 'width': 1, 'height': 2}, {'x': 5, 'y': 0, 'width': 1, 'height': 2}, {'x': 5, 'y': 2, 'width': 2, 'height': 1}, {'x': 3, 'y': 3, 'width': 2, 'height': 1}, {'x': 3, 'y': 4, 'width': 1, 'height': 2}, {'x': 5, 'y': 3, 'width': 1, 'height': 2}, {'x': 5, 'y': 5, 'width': 2, 'height': 1}]","[[True, True, True, True, True, True, True, True, True, True], [True, True, True, True, True, True, True, True, True, True], [True, True, True, True, True, True, True, True, True, True], [False, True, True, False, False, False, True, True, True, True], [False, False, False, False, True, True, True, True, True, True], [False, False, False, False, False, False, True, True, True, True], [True, True, False, True, True, False, True, True, True, True], [True, True, True, True, True, True, True, True, True, True], [True, True, True, True, True, True, True, True, True, True], [True, True, True, True, True, True, True, True, True, True], [True, True, True, True, True, True, True, True, True, True], [True, True, True, True, True, True, True, True, True, True]]",trial_end,perfect-reconstruction-translation,12132.0,0.0,0.0,,,,,
6,641ceb286e17e9023eee6100,1679616763535.0,,build,"{'blocks': [{'x': 0, 'y': 0, 'height': 2, 'width': 1}, {'x': 0, 'y': 2, 'height': 1, 'width': 2}, {'x': 0, 'y': 3, 'height': 2, 'width': 1}, {'x': 0, 'y': 5, 'height': 1, 'width': 2}, {'x': 2, 'y': 0, 'height': 1, 'width': 2}, {'x': 2, 'y': 1, 'height': 2, 'width': 1}, {'x': 2, 'y': 3, 'height': 2, 'width': 1}, {'x': 2, 'y': 5, 'height': 1, 'width': 2}]}",,1,0000000000000000111100001010000010100000111000001010000010110000,talls_127_125,tall_127,wide_020,tall_125,wide_025,talls_127_125,talls_127_125,block-tower-building-undo,3,95787,0.0-3.0,block_construction_build_components,build_components_build_recall_prolific_pilot_6_towers,628bef28fbe03c493fe63f57,7084-47ebb01e-9495-4bd0-a79d-1158dab10935,Prolific,trial_end,1679616804028.0,92504.0,"[{'x': 3, 'y': 0, 'width': 1, 'height': 2}, {'x': 3, 'y': 2, 'width': 2, 'height': 1}, {'x': 3, 'y': 3, 'width': 1, 'height': 2}, {'x': 3, 'y': 5, 'width': 2, 'height': 1}, {'x': 5, 'y': 0, 'width': 2, 'height': 1}, {'x': 5, 'y': 1, 'width': 1, 'height': 2}, {'x': 5, 'y': 3, 'width': 1, 'height': 2}, {'x': 5, 'y': 5, 'width': 2, 'height': 1}]","[[True, True, True, True, True, True, True, True, True, True], [True, True, True, True, True, True, True, True, True, True], [True, True, True, True, True, True, True, True, True, True], [False, False, False, False, False, False, True, True, True, True], [True, True, False, True, True, False, True, True, True, True], [False, False, False, False, False, False, True, True, True, True], [False, True, True, True, True, False, True, True, True, True], [True, True, True, True, True, True, True, True, True, True], [True, True, True, True, True, True, True, True, True, True], [True, True, True, True, True, True, True, True, True, True], [True, True, True, True, True, True, True, True, True, True], [True, True, True, True, True, True, True, True, True, True]]",trial_end,perfect-reconstruction-translation,40493.0,0.0,0.0,,,,,
7,641ceb386e17e9023eee6104,1679616808636.0,1679616823650.0,view,"{'blocks': [{'x': 0, 'y': 0, 'height': 2, 'width': 1}, {'x': 0, 'y': 2, 'height': 1, 'width': 2}, {'x': 0, 'y': 3, 'height': 1, 'width': 2}, {'x': 1, 'y': 4, 'height': 2, 'width': 1}, {'x': 3, 'y': 0, 'height': 2, 'width': 1}, {'x': 2, 'y': 2, 'height': 1, 'width': 2}, {'x': 2, 'y': 3, 'height': 2, 'width': 1}, {'x': 2, 'y': 5, 'height': 1, 'width': 2}]}",,2,0000000000000000011100000110000011100000111100001001000010010000,talls_102_126,tall_102,wide_024,tall_126,wide_011,talls_102_126,talls_102_126,block-tower-viewing,4,112405,0.0-4.0,block_construction_build_components,build_components_build_recall_prolific_pilot_6_towers,628bef28fbe03c493fe63f57,7084-47ebb01e-9495-4bd0-a79d-1158dab10935,Prolific,trial_end,,,,,,,,,,,,,,
8,641ceb4f6e17e9023eee6110,1679616832349.0,1679616847355.0,view,"{'blocks': [{'x': 0, 'y': 0, 'height': 1, 'width': 2}, {'x': 0, 'y': 1, 'height': 2, 'width': 1}, {'x': 0, 'y': 3, 'height': 1, 'width': 2}, {'x': 0, 'y': 4, 'height': 2, 'width': 1}, {'x': 2, 'y': 0, 'height': 1, 'width': 2}, {'x': 3, 'y': 1, 'height': 2, 'width': 1}, {'x': 2, 'y': 3, 'height': 1, 'width': 2}, {'x': 2, 'y': 4, 'height': 2, 'width': 1}]}",,1,0000000000000000101000001010000011110000100100001001000011110000,talls_114_111,tall_114,wide_013,tall_111,wide_014,talls_114_111,talls_114_111,block-tower-viewing,3,71445,0.0-3.0,block_construction_build_components,build_components_build_recall_prolific_pilot_6_towers,5ee15a640c2ad1180fd1df83,5916-68d40390-5744-434c-a5cf-b2b89168edfd,Prolific,trial_end,,,,,,,,,,,,,,
9,641ceb606e17e9023eee611c,1679616848959.0,1679616863962.0,view,"{'blocks': [{'x': 0, 'y': 0, 'height': 2, 'width': 1}, {'x': 0, 'y': 2, 'height': 1, 'width': 2}, {'x': 0, 'y': 3, 'height': 1, 'width': 2}, {'x': 1, 'y': 4, 'height': 2, 'width': 1}, {'x': 3, 'y': 0, 'height': 2, 'width': 1}, {'x': 2, 'y': 2, 'height': 1, 'width': 2}, {'x': 2, 'y': 3, 'height': 2, 'width': 1}, {'x': 2, 'y': 5, 'height': 1, 'width': 2}]}",,2,0000000000000000011100000110000011100000111100001001000010010000,talls_102_126,tall_102,wide_024,tall_126,wide_011,talls_102_126,talls_102_126,block-tower-viewing,4,88051,0.0-4.0,block_construction_build_components,build_components_build_recall_prolific_pilot_6_towers,5ee15a640c2ad1180fd1df83,5916-68d40390-5744-434c-a5cf-b2b89168edfd,Prolific,trial_end,,,,,,,,,,,,,,
10,641ceb6c6e17e9023eee612a,1679616759698.0,,build,"{'blocks': [{'x': 0, 'y': 0, 'height': 1, 'width': 2}, {'x': 1, 'y': 1, 'height': 2, 'width': 1}, {'x': 1, 'y': 3, 'height': 2, 'width': 1}, {'x': 0, 'y': 5, 'height': 1, 'width': 2}, {'x': 3, 'y': 0, 'height': 2, 'width': 1}, {'x': 2, 'y': 2, 'height': 1, 'width': 2}, {'x': 3, 'y': 3, 'height': 2, 'width': 1}, {'x': 2, 'y': 5, 'height': 1, 'width': 2}]}",,1,0000000000000000111100000101000001010000011100000101000011010000,talls_118_121,tall_118,wide_010,tall_121,wide_022,talls_118_121,talls_118_121,block-tower-building-undo,3,238278,0.0-3.0,block_construction_build_components,build_components_build_recall_prolific_pilot_6_towers,57be300e7eaea600014d2e4b,9970-6be1aa71-8611-4d8e-bc74-4f05a2108d97,Prolific,trial_end,1679616876981.0,235760.0,"[{'x': 3, 'y': 0, 'width': 2, 'height': 1}, {'x': 4, 'y': 1, 'width': 1, 'height': 2}, {'x': 6, 'y': 0, 'width': 1, 'height': 2}, {'x': 5, 'y': 2, 'width': 2, 'height': 1}, {'x': 4, 'y': 3, 'width': 1, 'height': 2}, {'x': 6, 'y': 3, 'width': 1, 'height': 2}, {'x': 5, 'y': 5, 'width': 2, 'height': 1}, {'x': 3, 'y': 5, 'width': 2, 'height': 1}]","[[True, True, True, True, True, True, True, True, True, True], [True, True, True, True, True, True, True, True, True, True], [True, True, True, True, True, True, True, True, True, True], [False, True, True, True, True, False, True, True, True, True], [False, False, False, False, False, False, True, True, True, True], [True, True, False, True, True, False, True, True, True, True], [False, False, False, False, False, False, True, True, True, True], [True, True, True, True, True, True, True, True, True, True], [True, True, True, True, True, True, True, True, True, True], [True, True, True, True, True, True, True, True, True, True], [True, True, True, True, True, True, True, True, True, True], [True, True, True, True, True, True, True, True, True, True]]",trial_end,perfect-reconstruction-translation,117285.0,0.0,3.0,,,,,
11,641ceb7c6e17e9023eee6133,1679616881598.0,1679616896614.0,view,"{'blocks': [{'x': 1, 'y': 0, 'height': 2, 'width': 1}, {'x': 0, 'y': 2, 'height': 1, 'width': 2}, {'x': 1, 'y': 3, 'height': 2, 'width': 1}, {'x': 0, 'y': 5, 'height': 1, 'width': 2}, {'x': 3, 'y': 0, 'height': 2, 'width': 1}, {'x': 2, 'y': 2, 'height': 1, 'width': 2}, {'x': 2, 'y': 3, 'height': 1, 'width': 2}, {'x': 3, 'y': 4, 'height': 2, 'width': 1}]}",,2,0000000000000000110100000101000001110000111100000101000001010000,talls_121_101,tall_121,wide_022,tall_101,wide_018,talls_121_101,talls_121_101,block-tower-viewing,4,254900,0.0-4.0,block_construction_build_components,build_components_build_recall_prolific_pilot_6_towers,57be300e7eaea600014d2e4b,9970-6be1aa71-8611-4d8e-bc74-4f05a2108d97,Prolific,trial_end,,,,,,,,,,,,,,
12,641ceb7e6e17e9023eee6134,1679616880364.0,1679616895426.0,view,"{'blocks': [{'x': 0, 'y': 0, 'height': 1, 'width': 2}, {'x': 0, 'y': 1, 'height': 2, 'width': 1}, {'x': 0, 'y': 3, 'height': 1, 'width': 2}, {'x': 0, 'y': 4, 'height': 2, 'width': 1}, {'x': 2, 'y': 0, 'height': 1, 'width': 2}, {'x': 3, 'y': 1, 'height': 2, 'width': 1}, {'x': 2, 'y': 3, 'height': 1, 'width': 2}, {'x': 2, 'y': 4, 'height': 2, 'width': 1}]}",,1,0000000000000000101000001010000011110000100100001001000011110000,talls_114_111,tall_114,wide_013,tall_111,wide_014,talls_114_111,talls_114_111,block-tower-viewing,3,68077,0.0-3.0,block_construction_build_components,build_components_build_recall_prolific_pilot_6_towers,63ed00457ed1419748312833,6111-3e3da43a-eab6-43b3-90d2-9a27133cd93b,Prolific,trial_end,,,,,,,,,,,,,,
13,641ceb8d6e17e9023eee6144,1679616898218.0,1679616913231.0,view,"{'blocks': [{'x': 0, 'y': 0, 'height': 1, 'width': 2}, {'x': 0, 'y': 1, 'height': 2, 'width': 1}, {'x': 0, 'y': 3, 'height': 1, 'width': 2}, {'x': 0, 'y': 4, 'height': 2, 'width': 1}, {'x': 2, 'y': 0, 'height': 1, 'width': 2}, {'x': 3, 'y': 1, 'height': 2, 'width': 1}, {'x': 2, 'y': 3, 'height': 1, 'width': 2}, {'x': 2, 'y': 4, 'height': 2, 'width': 1}]}",,3,0000000000000000101000001010000011110000100100001001000011110000,talls_114_111,tall_114,wide_013,tall_111,wide_014,talls_114_111,talls_114_111,block-tower-viewing,5,271518,0.0-5.0,block_construction_build_components,build_components_build_recall_prolific_pilot_6_towers,57be300e7eaea600014d2e4b,9970-6be1aa71-8611-4d8e-bc74-4f05a2108d97,Prolific,trial_end,,,,,,,,,,,,,,
14,641ceb8f6e17e9023eee6147,1679616897032.0,1679616912036.0,view,"{'blocks': [{'x': 0, 'y': 0, 'height': 1, 'width': 2}, {'x': 1, 'y': 1, 'height': 2, 'width': 1}, {'x': 0, 'y': 3, 'height': 1, 'width': 2}, {'x': 1, 'y': 4, 'height': 2, 'width': 1}, {'x': 2, 'y': 0, 'height': 1, 'width': 2}, {'x': 2, 'y': 1, 'height': 2, 'width': 1}, {'x': 2, 'y': 3, 'height': 1, 'width': 2}, {'x': 3, 'y': 4, 'height': 2, 'width': 1}]}",,2,0000000000000000010100000101000011110000011000000110000011110000,talls_097_100,tall_097,wide_008,tall_100,wide_006,talls_097_100,talls_097_100,block-tower-viewing,4,84686,0.0-4.0,block_construction_build_components,build_components_build_recall_prolific_pilot_6_towers,63ed00457ed1419748312833,6111-3e3da43a-eab6-43b3-90d2-9a27133cd93b,Prolific,trial_end,,,,,,,,,,,,,,
15,641ceba16e17e9023eee6158,1679616865564.0,,build,"{'blocks': [{'x': 0, 'y': 0, 'height': 1, 'width': 2}, {'x': 1, 'y': 1, 'height': 2, 'width': 1}, {'x': 0, 'y': 3, 'height': 1, 'width': 2}, {'x': 0, 'y': 4, 'height': 2, 'width': 1}, {'x': 2, 'y': 0, 'height': 2, 'width': 1}, {'x': 2, 'y': 2, 'height': 1, 'width': 2}, {'x': 2, 'y': 3, 'height': 2, 'width': 1}, {'x': 2, 'y': 5, 'height': 1, 'width': 2}]}",,3,0000000000000000101100001010000011100000011100000110000011100000,talls_111_127,tall_111,wide_011,tall_127,wide_015,talls_111_127,talls_111_127,block-tower-building-undo,5,152996,0.0-5.0,block_construction_build_components,build_components_build_recall_prolific_pilot_6_towers,5ee15a640c2ad1180fd1df83,5916-68d40390-5744-434c-a5cf-b2b89168edfd,Prolific,trial_end,1679616925900.0,149567.0,"[{'x': 4, 'y': 0, 'width': 2, 'height': 1}, {'x': 6, 'y': 0, 'width': 1, 'height': 2}, {'x': 5, 'y': 1, 'width': 1, 'height': 2}, {'x': 6, 'y': 2, 'width': 2, 'height': 1}, {'x': 6, 'y': 3, 'width': 1, 'height': 2}, {'x': 6, 'y': 5, 'width': 2, 'height': 1}, {'x': 4, 'y': 3, 'width': 2, 'height': 1}, {'x': 4, 'y': 4, 'width': 1, 'height': 2}]","[[True, True, True, True, True, True, True, True, True, True], [True, True, True, True, True, True, True, True, True, True], [True, True, True, True, True, True, True, True, True, True], [True, True, True, True, True, True, True, True, True, True], [False, True, True, False, False, False, True, True, True, True], [False, False, False, False, True, True, True, True, True, True], [False, False, False, False, False, False, True, True, True, True], [True, True, False, True, True, False, True, True, True, True], [True, True, True, True, True, True, True, True, True, True], [True, True, True, True, True, True, True, True, True, True], [True, True, True, True, True, True, True, True, True, True], [True, True, True, True, True, True, True, True, True, True]]",trial_end,perfect-reconstruction-translation,60337.0,0.0,0.0,,,,,
16,641cebb16e17e9023eee616c,1679616930510.0,1679616945516.0,view,"{'blocks': [{'x': 0, 'y': 0, 'height': 1, 'width': 2}, {'x': 0, 'y': 1, 'height': 2, 'width': 1}, {'x': 0, 'y': 3, 'height': 1, 'width': 2}, {'x': 1, 'y': 4, 'height': 2, 'width': 1}, {'x': 2, 'y': 0, 'height': 1, 'width': 2}, {'x': 3, 'y': 1, 'height': 2, 'width': 1}, {'x': 2, 'y': 3, 'height': 1, 'width': 2}, {'x': 3, 'y': 4, 'height': 2, 'width': 1}]}",,4,0000000000000000010100000101000011110000100100001001000011110000,talls_100_097,tall_100,wide_013,tall_097,wide_006,talls_100_097,talls_100_097,block-tower-viewing,6,169610,0.0-6.0,block_construction_build_components,build_components_build_recall_prolific_pilot_6_towers,5ee15a640c2ad1180fd1df83,5916-68d40390-5744-434c-a5cf-b2b89168edfd,Prolific,trial_end,,,,,,,,,,,,,,
17,641cebbf6e17e9023eee617e,1679616825255.0,,build,"{'blocks': [{'x': 0, 'y': 0, 'height': 1, 'width': 2}, {'x': 0, 'y': 1, 'height': 2, 'width': 1}, {'x': 0, 'y': 3, 'height': 1, 'width': 2}, {'x': 1, 'y': 4, 'height': 2, 'width': 1}, {'x': 2, 'y': 0, 'height': 1, 'width': 2}, {'x': 3, 'y': 1, 'height': 2, 'width': 1}, {'x': 2, 'y': 3, 'height': 1, 'width': 2}, {'x': 3, 'y': 4, 'height': 2, 'width': 1}]}",,3,0000000000000000010100000101000011110000100100001001000011110000,talls_100_097,tall_100,wide_013,tall_097,wide_006,talls_100_097,talls_100_097,block-tower-building-undo,5,247376,0.0-5.0,block_construction_build_components,build_components_build_recall_prolific_pilot_6_towers,628bef28fbe03c493fe63f57,7084-47ebb01e-9495-4bd0-a79d-1158dab10935,Prolific,trial_end,1679616955607.0,244083.0,"[{'x': 4, 'y': 0, 'width': 2, 'height': 1}, {'x': 6, 'y': 0, 'width': 2, 'height': 1}, {'x': 4, 'y': 1, 'width': 1, 'height': 2}, {'x': 7, 'y': 1, 'width': 1, 'height': 2}, {'x': 4, 'y': 3, 'width': 2, 'height': 1}, {'x': 6, 'y': 3, 'width': 2, 'height': 1}, {'x': 5, 'y': 4, 'width': 1, 'height': 2}, {'x': 7, 'y': 4, 'width': 1, 'height': 2}]","[[True, True, True, True, True, True, True, True, True, True], [True, True, True, True, True, True, True, True, True, True], [True, True, True, True, True, True, True, True, True, True], [True, True, True, True, True, True, True, True, True, True], [False, False, False, False, True, True, True, True, True, True], [False, True, True, False, False, False, True, True, True, True], [False, True, True, False, True, True, True, True, True, True], [False, False, False, False, False, False, True, True, True, True], [True, True, True, True, True, True, True, True, True, True], [True, True, True, True, True, True, True, True, True, True], [True, True, True, True, True, True, True, True, True, True], [True, True, True, True, True, True, True, True, True, True]]",trial_end,perfect-reconstruction-translation,130353.0,0.0,0.0,,,,,
18,641cebcf6e17e9023eee618e,1679616947126.0,,build,"{'blocks': [{'x': 0, 'y': 0, 'height': 1, 'width': 2}, {'x': 1, 'y': 1, 'height': 2, 'width': 1}, {'x': 1, 'y': 3, 'height': 2, 'width': 1}, {'x': 0, 'y': 5, 'height': 1, 'width': 2}, {'x': 2, 'y': 0, 'height': 1, 'width': 2}, {'x': 2, 'y': 1, 'height': 2, 'width': 1}, {'x': 2, 'y': 3, 'height': 1, 'width': 2}, {'x': 2, 'y': 4, 'height': 2, 'width': 1}]}",,5,0000000000000000111000000110000001110000011000000110000011110000,talls_118_114,tall_118,wide_008,tall_114,wide_019,talls_118_114,talls_118_114,block-tower-building-undo,7,198943,0.0-7.0,block_construction_build_components,build_components_build_recall_prolific_pilot_6_towers,5ee15a640c2ad1180fd1df83,5916-68d40390-5744-434c-a5cf-b2b89168edfd,Prolific,trial_end,1679616971844.0,195511.0,"[{'x': 4, 'y': 0, 'width': 2, 'height': 1}, {'x': 6, 'y': 0, 'width': 2, 'height': 1}, {'x': 5, 'y': 1, 'width': 1, 'height': 2}, {'x': 6, 'y': 1, 'width': 1, 'height': 2}, {'x': 6, 'y': 3, 'width': 2, 'height': 1}, {'x': 5, 'y': 3, 'width': 1, 'height': 2}, {'x': 6, 'y': 4, 'width': 1, 'height': 2}, {'x': 4, 'y': 5, 'width': 2, 'height': 1}]","[[True, True, True, True, True, True, True, True, True, True], [True, True, True, True, True, True, True, True, True, True], [True, True, True, True, True, True, True, True, True, True], [True, True, True, True, True, True, True, True, True, True], [False, True, True, True, True, False, True, True, True, True], [False, False, False, False, False, False, True, True, True, True], [False, False, False, False, False, False, True, True, True, True], [False, True, True, False, True, True, True, True, True, True], [True, True, True, True, True, True, True, True, True, True], [True, True, True, True, True, True, True, True, True, True], [True, True, True, True, True, True, True, True, True, True], [True, True, True, True, True, True, True, True, True, True]]",trial_end,perfect-reconstruction-translation,24719.0,0.0,0.0,,,,,
19,641cebd06e17e9023eee6190,1679616960226.0,1679616975239.0,view,"{'blocks': [{'x': 0, 'y': 0, 'height': 1, 'width': 2}, {'x': 1, 'y': 1, 'height': 2, 'width': 1}, {'x': 0, 'y': 3, 'height': 1, 'width': 2}, {'x': 1, 'y': 4, 'height': 2, 'width': 1}, {'x': 2, 'y': 0, 'height': 1, 'width': 2}, {'x': 3, 'y': 1, 'height': 2, 'width': 1}, {'x': 3, 'y': 3, 'height': 2, 'width': 1}, {'x': 2, 'y': 5, 'height': 1, 'width': 2}]}",,4,0000000000000000011100000101000011010000010100000101000011110000,talls_097_118,tall_097,wide_006,tall_118,wide_010,talls_097_118,talls_097_118,block-tower-viewing,6,263994,0.0-6.0,block_construction_build_components,build_components_build_recall_prolific_pilot_6_towers,628bef28fbe03c493fe63f57,7084-47ebb01e-9495-4bd0-a79d-1158dab10935,Prolific,trial_end,,,,,,,,,,,,,,
20,641cebe06e17e9023eee61a8,1679616976855.0,1679616991874.0,view,"{'blocks': [{'x': 0, 'y': 0, 'height': 1, 'width': 2}, {'x': 1, 'y': 1, 'height': 2, 'width': 1}, {'x': 0, 'y': 3, 'height': 1, 'width': 2}, {'x': 0, 'y': 4, 'height': 2, 'width': 1}, {'x': 2, 'y': 0, 'height': 2, 'width': 1}, {'x': 2, 'y': 2, 'height': 1, 'width': 2}, {'x': 2, 'y': 3, 'height': 2, 'width': 1}, {'x': 2, 'y': 5, 'height': 1, 'width': 2}]}",,5,0000000000000000101100001010000011100000011100000110000011100000,talls_111_127,tall_111,wide_011,tall_127,wide_015,talls_111_127,talls_111_127,block-tower-viewing,7,280628,0.0-7.0,block_construction_build_components,build_components_build_recall_prolific_pilot_6_towers,628bef28fbe03c493fe63f57,7084-47ebb01e-9495-4bd0-a79d-1158dab10935,Prolific,trial_end,,,,,,,,,,,,,,
21,641cebe56e17e9023eee61b5,1679616976462.0,,build,"{'blocks': [{'x': 1, 'y': 0, 'height': 2, 'width': 1}, {'x': 0, 'y': 2, 'height': 1, 'width': 2}, {'x': 1, 'y': 3, 'height': 2, 'width': 1}, {'x': 0, 'y': 5, 'height': 1, 'width': 2}, {'x': 3, 'y': 0, 'height': 2, 'width': 1}, {'x': 2, 'y': 2, 'height': 1, 'width': 2}, {'x': 2, 'y': 3, 'height': 1, 'width': 2}, {'x': 3, 'y': 4, 'height': 2, 'width': 1}]}",,6,0000000000000000110100000101000001110000111100000101000001010000,talls_121_101,tall_121,wide_022,tall_101,wide_018,talls_121_101,talls_121_101,block-tower-building-undo,8,221726,0.0-8.0,block_construction_build_components,build_components_build_recall_prolific_pilot_6_towers,5ee15a640c2ad1180fd1df83,5916-68d40390-5744-434c-a5cf-b2b89168edfd,Prolific,trial_end,1679616994598.0,218265.0,"[{'x': 4, 'y': 0, 'width': 1, 'height': 2}, {'x': 6, 'y': 0, 'width': 1, 'height': 2}, {'x': 5, 'y': 2, 'width': 2, 'height': 1}, {'x': 3, 'y': 2, 'width': 2, 'height': 1}, {'x': 5, 'y': 3, 'width': 2, 'height': 1}, {'x': 6, 'y': 4, 'width': 1, 'height': 2}, {'x': 4, 'y': 3, 'width': 1, 'height': 2}, {'x': 3, 'y': 5, 'width': 2, 'height': 1}]","[[True, True, True, True, True, True, True, True, True, True], [True, True, True, True, True, True, True, True, True, True], [True, True, True, True, True, True, True, True, True, True], [True, True, False, True, True, False, True, True, True, True], [False, False, False, False, False, False, True, True, True, True], [True, True, False, False, True, True, True, True, True, True], [False, False, False, False, False, False, True, True, True, True], [True, True, True, True, True, True, True, True, True, True], [True, True, True, True, True, True, True, True, True, True], [True, True, True, True, True, True, True, True, True, True], [True, True, True, True, True, True, True, True, True, True], [True, True, True, True, True, True, True, True, True, True]]",trial_end,perfect-reconstruction-translation,18136.0,0.0,0.0,,,,,
22,641cebee6e17e9023eee61c3,1679616913642.0,,build,"{'blocks': [{'x': 0, 'y': 0, 'height': 1, 'width': 2}, {'x': 1, 'y': 1, 'height': 2, 'width': 1}, {'x': 0, 'y': 3, 'height': 1, 'width': 2}, {'x': 1, 'y': 4, 'height': 2, 'width': 1}, {'x': 2, 'y': 0, 'height': 1, 'width': 2}, {'x': 3, 'y': 1, 'height': 2, 'width': 1}, {'x': 3, 'y': 3, 'height': 2, 'width': 1}, {'x': 2, 'y': 5, 'height': 1, 'width': 2}]}",,3,0000000000000000011100000101000011010000010100000101000011110000,talls_097_118,tall_097,wide_006,tall_118,wide_010,talls_097_118,talls_097_118,block-tower-building-undo,5,179395,0.0-5.0,block_construction_build_components,build_components_build_recall_prolific_pilot_6_towers,63ed00457ed1419748312833,6111-3e3da43a-eab6-43b3-90d2-9a27133cd93b,Prolific,trial_end,1679617003669.0,176265.0,"[{'x': 3, 'y': 0, 'width': 2, 'height': 1}, {'x': 5, 'y': 0, 'width': 2, 'height': 1}, {'x': 4, 'y': 1, 'width': 1, 'height': 2}, {'x': 3, 'y': 3, 'width': 2, 'height': 1}, {'x': 4, 'y': 4, 'width': 1, 'height': 2}, {'x': 6, 'y': 1, 'width': 1, 'height': 2}, {'x': 6, 'y': 3, 'width': 1, 'height': 2}, {'x': 5, 'y': 5, 'width': 2, 'height': 1}]","[[True, True, True, True, True, True, True, True, True, True], [True, True, True, True, True, True, True, True, True, True], [True, True, True, True, True, True, True, True, True, True], [False, True, True, False, True, True, True, True, True, True], [False, False, False, False, False, False, True, True, True, True], [False, True, True, True, True, False, True, True, True, True], [False, False, False, False, False, False, True, True, True, True], [True, True, True, True, True, True, True, True, True, True], [True, True, True, True, True, True, True, True, True, True], [True, True, True, True, True, True, True, True, True, True], [True, True, True, True, True, True, True, True, True, True], [True, True, True, True, True, True, True, True, True, True]]",trial_end,perfect-reconstruction-translation,90029.0,0.0,3.0,,,,,
23,641cebf06e17e9023eee61c6,1679616967385.0,,build,"{'blocks': [{'x': 0, 'y': 0, 'height': 1, 'width': 2}, {'x': 1, 'y': 1, 'height': 2, 'width': 1}, {'x': 0, 'y': 3, 'height': 1, 'width': 2}, {'x': 1, 'y': 4, 'height': 2, 'width': 1}, {'x': 2, 'y': 0, 'height': 1, 'width': 2}, {'x': 3, 'y': 1, 'height': 2, 'width': 1}, {'x': 3, 'y': 3, 'height': 2, 'width': 1}, {'x': 2, 'y': 5, 'height': 1, 'width': 2}]}",,1,0000000000000000011100000101000011010000010100000101000011110000,talls_097_118,tall_097,wide_006,tall_118,wide_010,talls_097_118,talls_097_118,block-tower-building-undo,3,122433,0.0-3.0,block_construction_build_components,build_components_build_recall_prolific_pilot_6_towers,5c9d81d42d9a05001690c490,1561-a3b2cbca-0886-49de-a3a0-38fe5252eb6f,Prolific,trial_end,1679617002948.0,119180.0,"[{'x': 4, 'y': 0, 'width': 2, 'height': 1}, {'x': 6, 'y': 0, 'width': 2, 'height': 1}, {'x': 5, 'y': 1, 'width': 1, 'height': 2}, {'x': 7, 'y': 1, 'width': 1, 'height': 2}, {'x': 4, 'y': 3, 'width': 2, 'height': 1}, {'x': 7, 'y': 3, 'width': 1, 'height': 2}, {'x': 5, 'y': 4, 'width': 1, 'height': 2}, {'x': 6, 'y': 5, 'width': 2, 'height': 1}]","[[True, True, True, True, True, True, True, True, True, True], [True, True, True, True, True, True, True, True, True, True], [True, True, True, True, True, True, True, True, True, True], [True, True, True, True, True, True, True, True, True, True], [False, True, True, False, True, True, True, True, True, True], [False, False, False, False, False, False, True, True, True, True], [False, True, True, True, True, False, True, True, True, True], [False, False, False, False, False, False, True, True, True, True], [True, True, True, True, True, True, True, True, True, True], [True, True, True, True, True, True, True, True, True, True], [True, True, True, True, True, True, True, True, True, True], [True, True, True, True, True, True, True, True, True, True]]",trial_end,perfect-reconstruction-translation,35564.0,0.0,0.0,,,,,
24,641cebfd6e17e9023eee61e2,1679616993488.0,,build,"{'blocks': [{'x': 0, 'y': 0, 'height': 1, 'width': 2}, {'x': 1, 'y': 1, 'height': 2, 'width': 1}, {'x': 0, 'y': 3, 'height': 1, 'width': 2}, {'x': 1, 'y': 4, 'height': 2, 'width': 1}, {'x': 2, 'y': 0, 'height': 1, 'width': 2}, {'x': 2, 'y': 1, 'height': 2, 'width': 1}, {'x': 2, 'y': 3, 'height': 1, 'width': 2}, {'x': 3, 'y': 4, 'height': 2, 'width': 1}]}",,6,0000000000000000010100000101000011110000011000000110000011110000,talls_097_100,tall_097,wide_008,tall_100,wide_006,talls_097_100,talls_097_100,block-tower-building-undo,8,309296,0.0-8.0,block_construction_build_components,build_components_build_recall_prolific_pilot_6_towers,628bef28fbe03c493fe63f57,7084-47ebb01e-9495-4bd0-a79d-1158dab10935,Prolific,trial_end,1679617017472.0,305948.0,"[{'x': 3, 'y': 0, 'width': 2, 'height': 1}, {'x': 5, 'y': 0, 'width': 2, 'height': 1}, {'x': 4, 'y': 1, 'width': 1, 'height': 2}, {'x': 5, 'y': 1, 'width': 1, 'height': 2}, {'x': 3, 'y': 3, 'width': 2, 'height': 1}, {'x': 5, 'y': 3, 'width': 2, 'height': 1}, {'x': 4, 'y': 4, 'width': 1, 'height': 2}, {'x': 6, 'y': 4, 'width': 1, 'height': 2}]","[[True, True, True, True, True, True, True, True, True, True], [True, True, True, True, True, True, True, True, True, True], [True, True, True, True, True, True, True, True, True, True], [False, True, True, False, True, True, True, True, True, True], [False, False, False, False, False, False, True, True, True, True], [False, False, False, False, True, True, True, True, True, True], [False, True, True, False, False, False, True, True, True, True], [True, True, True, True, True, True, True, True, True, True], [True, True, True, True, True, True, True, True, True, True], [True, True, True, True, True, True, True, True, True, True], [True, True, True, True, True, True, True, True, True, True], [True, True, True, True, True, True, True, True, True, True]]",trial_end,perfect-reconstruction-translation,23984.0,0.0,0.0,,,,,
25,641cec006e17e9023eee61ec,1679617007555.0,1679617022560.0,view,"{'blocks': [{'x': 1, 'y': 0, 'height': 2, 'width': 1}, {'x': 0, 'y': 2, 'height': 1, 'width': 2}, {'x': 0, 'y': 3, 'height': 1, 'width': 2}, {'x': 1, 'y': 4, 'height': 2, 'width': 1}, {'x': 2, 'y': 0, 'height': 1, 'width': 2}, {'x': 3, 'y': 1, 'height': 2, 'width': 1}, {'x': 2, 'y': 3, 'height': 1, 'width': 2}, {'x': 2, 'y': 4, 'height': 2, 'width': 1}]}",,2,0000000000000000011000000110000011110000110100000101000001110000,talls_101_111,tall_101,wide_018,tall_111,wide_008,talls_101_111,talls_101_111,block-tower-viewing,4,139045,0.0-4.0,block_construction_build_components,build_components_build_recall_prolific_pilot_6_towers,5c9d81d42d9a05001690c490,1561-a3b2cbca-0886-49de-a3a0-38fe5252eb6f,Prolific,trial_end,,,,,,,,,,,,,,
26,641cec0c6e17e9023eee6200,1679617008395.0,,build,"{'blocks': [{'x': 0, 'y': 0, 'height': 1, 'width': 2}, {'x': 1, 'y': 1, 'height': 2, 'width': 1}, {'x': 1, 'y': 3, 'height': 2, 'width': 1}, {'x': 0, 'y': 5, 'height': 1, 'width': 2}, {'x': 3, 'y': 0, 'height': 2, 'width': 1}, {'x': 2, 'y': 2, 'height': 1, 'width': 2}, {'x': 3, 'y': 3, 'height': 2, 'width': 1}, {'x': 2, 'y': 5, 'height': 1, 'width': 2}]}",,4,0000000000000000111100000101000001010000011100000101000011010000,talls_118_121,tall_118,wide_010,tall_121,wide_022,talls_118_121,talls_118_121,block-tower-building-undo,6,209284,0.0-6.0,block_construction_build_components,build_components_build_recall_prolific_pilot_6_towers,63ed00457ed1419748312833,6111-3e3da43a-eab6-43b3-90d2-9a27133cd93b,Prolific,trial_end,1679617033491.0,206087.0,"[{'x': 2, 'y': 0, 'width': 2, 'height': 1}, {'x': 3, 'y': 1, 'width': 1, 'height': 2}, {'x': 3, 'y': 3, 'width': 1, 'height': 2}, {'x': 5, 'y': 0, 'width': 1, 'height': 2}, {'x': 4, 'y': 2, 'width': 2, 'height': 1}, {'x': 5, 'y': 3, 'width': 1, 'height': 2}, {'x': 4, 'y': 5, 'width': 2, 'height': 1}, {'x': 2, 'y': 5, 'width': 2, 'height': 1}]","[[True, True, True, True, True, True, True, True, True, True], [True, True, True, True, True, True, True, True, True, True], [False, True, True, True, True, False, True, True, True, True], [False, False, False, False, False, False, True, True, True, True], [True, True, False, True, True, False, True, True, True, True], [False, False, False, False, False, False, True, True, True, True], [True, True, True, True, True, True, True, True, True, True], [True, True, True, True, True, True, True, True, True, True], [True, True, True, True, True, True, True, True, True, True], [True, True, True, True, True, True, True, True, True, True], [True, True, True, True, True, True, True, True, True, True], [True, True, True, True, True, True, True, True, True, True]]",trial_end,perfect-reconstruction-translation,25098.0,0.0,0.0,,,,,
27,641cec116e17e9023eee6205,1679617024165.0,1679617039170.0,view,"{'blocks': [{'x': 0, 'y': 0, 'height': 2, 'width': 1}, {'x': 0, 'y': 2, 'height': 1, 'width': 2}, {'x': 0, 'y': 3, 'height': 1, 'width': 2}, {'x': 0, 'y': 4, 'height': 2, 'width': 1}, {'x': 2, 'y': 0, 'height': 1, 'width': 2}, {'x': 2, 'y': 1, 'height': 2, 'width': 1}, {'x': 2, 'y': 3, 'height': 1, 'width': 2}, {'x': 3, 'y': 4, 'height': 2, 'width': 1}]}",,3,0000000000000000100100001001000011110000111000001010000010110000,talls_116_100,tall_116,wide_020,tall_100,wide_013,talls_116_100,talls_116_100,block-tower-viewing,5,155654,0.0-5.0,block_construction_build_components,build_components_build_recall_prolific_pilot_6_towers,5c9d81d42d9a05001690c490,1561-a3b2cbca-0886-49de-a3a0-38fe5252eb6f,Prolific,trial_end,,,,,,,,,,,,,,
28,641cec126e17e9023eee620d,1679616914838.0,,build,"{'blocks': [{'x': 0, 'y': 0, 'height': 1, 'width': 2}, {'x': 0, 'y': 1, 'height': 2, 'width': 1}, {'x': 0, 'y': 3, 'height': 1, 'width': 2}, {'x': 1, 'y': 4, 'height': 2, 'width': 1}, {'x': 2, 'y': 0, 'height': 1, 'width': 2}, {'x': 3, 'y': 1, 'height': 2, 'width': 1}, {'x': 2, 'y': 3, 'height': 1, 'width': 2}, {'x': 3, 'y': 4, 'height': 2, 'width': 1}]}",,4,0000000000000000010100000101000011110000100100001001000011110000,talls_100_097,tall_100,wide_013,tall_097,wide_006,talls_100_097,talls_100_097,block-tower-building-undo,6,405011,0.0-6.0,block_construction_build_components,build_components_build_recall_prolific_pilot_6_towers,57be300e7eaea600014d2e4b,9970-6be1aa71-8611-4d8e-bc74-4f05a2108d97,Prolific,trial_end,1679617043667.0,402446.0,"[{'x': 4, 'y': 0, 'width': 2, 'height': 1}, {'x': 6, 'y': 0, 'width': 2, 'height': 1}, {'x': 4, 'y': 1, 'width': 1, 'height': 2}, {'x': 7, 'y': 1, 'width': 1, 'height': 2}, {'x': 6, 'y': 3, 'width': 2, 'height': 1}, {'x': 4, 'y': 3, 'width': 2, 'height': 1}, {'x': 5, 'y': 4, 'width': 1, 'height': 2}, {'x': 7, 'y': 4, 'width': 1, 'height': 2}]","[[True, True, True, True, True, True, True, True, True, True], [True, True, True, True, True, True, True, True, True, True], [True, True, True, True, True, True, True, True, True, True], [True, True, True, True, True, True, True, True, True, True], [False, False, False, False, True, True, True, True, True, True], [False, True, True, False, False, False, True, True, True, True], [False, True, True, False, True, True, True, True, True, True], [False, False, False, False, False, False, True, True, True, True], [True, True, True, True, True, True, True, True, True, True], [True, True, True, True, True, True, True, True, True, True], [True, True, True, True, True, True, True, True, True, True], [True, True, True, True, True, True, True, True, True, True]]",trial_end,perfect-reconstruction-translation,128831.0,0.0,2.0,,,,,
29,641cec1c6e17e9023eee6222,1679617038295.0,1679617053373.0,view,"{'blocks': [{'x': 1, 'y': 0, 'height': 2, 'width': 1}, {'x': 0, 'y': 2, 'height': 1, 'width': 2}, {'x': 0, 'y': 3, 'height': 1, 'width': 2}, {'x': 1, 'y': 4, 'height': 2, 'width': 1}, {'x': 2, 'y': 0, 'height': 1, 'width': 2}, {'x': 3, 'y': 1, 'height': 2, 'width': 1}, {'x': 2, 'y': 3, 'height': 1, 'width': 2}, {'x': 2, 'y': 4, 'height': 2, 'width': 1}]}",,5,0000000000000000011000000110000011110000110100000101000001110000,talls_101_111,tall_101,wide_018,tall_111,wide_008,talls_101_111,talls_101_111,block-tower-viewing,7,226102,0.0-7.0,block_construction_build_components,build_components_build_recall_prolific_pilot_6_towers,63ed00457ed1419748312833,6111-3e3da43a-eab6-43b3-90d2-9a27133cd93b,Prolific,trial_end,,,,,,,,,,,,,,
30,641cec236e17e9023eee6238,1679617048351.0,1679617063383.0,view,"{'blocks': [{'x': 1, 'y': 0, 'height': 2, 'width': 1}, {'x': 0, 'y': 2, 'height': 1, 'width': 2}, {'x': 0, 'y': 3, 'height': 1, 'width': 2}, {'x': 1, 'y': 4, 'height': 2, 'width': 1}, {'x': 2, 'y': 0, 'height': 1, 'width': 2}, {'x': 3, 'y': 1, 'height': 2, 'width': 1}, {'x': 2, 'y': 3, 'height': 1, 'width': 2}, {'x': 2, 'y': 4, 'height': 2, 'width': 1}]}",,5,0000000000000000011000000110000011110000110100000101000001110000,talls_101_111,tall_101,wide_018,tall_111,wide_008,talls_101_111,talls_101_111,block-tower-viewing,7,421706,0.0-7.0,block_construction_build_components,build_components_build_recall_prolific_pilot_6_towers,57be300e7eaea600014d2e4b,9970-6be1aa71-8611-4d8e-bc74-4f05a2108d97,Prolific,trial_end,,,,,,,,,,,,,,
31,641cec286e17e9023eee624b,1679616995850.0,,build,"{'blocks': [{'x': 1, 'y': 0, 'height': 2, 'width': 1}, {'x': 0, 'y': 2, 'height': 1, 'width': 2}, {'x': 1, 'y': 3, 'height': 2, 'width': 1}, {'x': 0, 'y': 5, 'height': 1, 'width': 2}, {'x': 3, 'y': 0, 'height': 2, 'width': 1}, {'x': 2, 'y': 2, 'height': 1, 'width': 2}, {'x': 2, 'y': 3, 'height': 1, 'width': 2}, {'x': 3, 'y': 4, 'height': 2, 'width': 1}]}",,1,0000000000000000110100000101000001110000111100000101000001010000,talls_121_101,tall_121,wide_022,tall_101,wide_018,talls_121_101,talls_121_101,block-tower-building-undo,3,134429,0.0-3.0,block_construction_build_components,build_components_build_recall_prolific_pilot_6_towers,616f012ecf26b8c269c43152,9011-a010c09b-983b-449e-89e9-5e492df35c48,Prolific,trial_end,1679617061107.0,131191.0,"[{'x': 4, 'y': 0, 'width': 1, 'height': 2}, {'x': 3, 'y': 2, 'width': 2, 'height': 1}, {'x': 6, 'y': 0, 'width': 1, 'height': 2}, {'x': 5, 'y': 2, 'width': 2, 'height': 1}, {'x': 5, 'y': 3, 'width': 2, 'height': 1}, {'x': 4, 'y': 3, 'width': 1, 'height': 2}, {'x': 3, 'y': 5, 'width': 2, 'height': 1}, {'x': 6, 'y': 4, 'width': 1, 'height': 2}]","[[True, True, True, True, True, True, True, True, True, True], [True, True, True, True, True, True, True, True, True, True], [True, True, True, True, True, True, True, True, True, True], [True, True, False, True, True, False, True, True, True, True], [False, False, False, False, False, False, True, True, True, True], [True, True, False, False, True, True, True, True, True, True], [False, False, False, False, False, False, True, True, True, True], [True, True, True, True, True, True, True, True, True, True], [True, True, True, True, True, True, True, True, True, True], [True, True, True, True, True, True, True, True, True, True], [True, True, True, True, True, True, True, True, True, True], [True, True, True, True, True, True, True, True, True, True]]",trial_end,perfect-reconstruction-translation,65257.0,0.0,0.0,,,,,
32,641cec296e17e9023eee624d,1679617040776.0,,build,"{'blocks': [{'x': 0, 'y': 0, 'height': 1, 'width': 2}, {'x': 1, 'y': 1, 'height': 2, 'width': 1}, {'x': 0, 'y': 3, 'height': 1, 'width': 2}, {'x': 1, 'y': 4, 'height': 2, 'width': 1}, {'x': 2, 'y': 0, 'height': 1, 'width': 2}, {'x': 2, 'y': 1, 'height': 2, 'width': 1}, {'x': 2, 'y': 3, 'height': 1, 'width': 2}, {'x': 3, 'y': 4, 'height': 2, 'width': 1}]}",,4,0000000000000000010100000101000011110000011000000110000011110000,talls_097_100,tall_097,wide_008,tall_100,wide_006,talls_097_100,talls_097_100,block-tower-building-undo,6,179383,0.0-6.0,block_construction_build_components,build_components_build_recall_prolific_pilot_6_towers,5c9d81d42d9a05001690c490,1561-a3b2cbca-0886-49de-a3a0-38fe5252eb6f,Prolific,trial_end,1679617059898.0,176130.0,"[{'x': 4, 'y': 0, 'width': 2, 'height': 1}, {'x': 6, 'y': 0, 'width': 2, 'height': 1}, {'x': 5, 'y': 1, 'width': 2, 'height': 1}, {'x': 5, 'y': 2, 'width': 2, 'height': 1}, {'x': 4, 'y': 3, 'width': 2, 'height': 1}, {'x': 6, 'y': 3, 'width': 2, 'height': 1}, {'x': 5, 'y': 4, 'width': 1, 'height': 2}, {'x': 7, 'y': 4, 'width': 1, 'height': 2}]","[[True, True, True, True, True, True, True, True, True, True], [True, True, True, True, True, True, True, True, True, True], [True, True, True, True, True, True, True, True, True, True], [True, True, True, True, True, True, True, True, True, True], [False, True, True, False, True, True, True, True, True, True], [False, False, False, False, False, False, True, True, True, True], [False, False, False, False, True, True, True, True, True, True], [False, True, True, False, False, False, True, True, True, True], [True, True, True, True, True, True, True, True, True, True], [True, True, True, True, True, True, True, True, True, True], [True, True, True, True, True, True, True, True, True, True], [True, True, True, True, True, True, True, True, True, True]]",trial_end,perfect-reconstruction-translation,19122.0,0.0,0.0,,,,,
33,641cec396e17e9023eee6267,1679617065715.0,1679617080723.0,view,"{'blocks': [{'x': 0, 'y': 0, 'height': 1, 'width': 2}, {'x': 1, 'y': 1, 'height': 2, 'width': 1}, {'x': 1, 'y': 3, 'height': 2, 'width': 1}, {'x': 0, 'y': 5, 'height': 1, 'width': 2}, {'x': 3, 'y': 0, 'height': 2, 'width': 1}, {'x': 2, 'y': 2, 'height': 1, 'width': 2}, {'x': 3, 'y': 3, 'height': 2, 'width': 1}, {'x': 2, 'y': 5, 'height': 1, 'width': 2}]}",,2,0000000000000000111100000101000001010000011100000101000011010000,talls_118_121,tall_118,wide_010,tall_121,wide_022,talls_118_121,talls_118_121,block-tower-viewing,4,151040,0.0-4.0,block_construction_build_components,build_components_build_recall_prolific_pilot_6_towers,616f012ecf26b8c269c43152,9011-a010c09b-983b-449e-89e9-5e492df35c48,Prolific,trial_end,,,,,,,,,,,,,,
34,641cec396e17e9023eee6269,1679617064508.0,1679617079514.0,view,"{'blocks': [{'x': 1, 'y': 0, 'height': 2, 'width': 1}, {'x': 0, 'y': 2, 'height': 1, 'width': 2}, {'x': 1, 'y': 3, 'height': 2, 'width': 1}, {'x': 0, 'y': 5, 'height': 1, 'width': 2}, {'x': 3, 'y': 0, 'height': 2, 'width': 1}, {'x': 2, 'y': 2, 'height': 1, 'width': 2}, {'x': 2, 'y': 3, 'height': 1, 'width': 2}, {'x': 3, 'y': 4, 'height': 2, 'width': 1}]}",,5,0000000000000000110100000101000001110000111100000101000001010000,talls_121_101,tall_121,wide_022,tall_101,wide_018,talls_121_101,talls_121_101,block-tower-viewing,7,195997,0.0-7.0,block_construction_build_components,build_components_build_recall_prolific_pilot_6_towers,5c9d81d42d9a05001690c490,1561-a3b2cbca-0886-49de-a3a0-38fe5252eb6f,Prolific,trial_end,,,,,,,,,,,,,,
35,641cec3d6e17e9023eee6270,1679617055115.0,,build,"{'blocks': [{'x': 0, 'y': 0, 'height': 2, 'width': 1}, {'x': 0, 'y': 2, 'height': 1, 'width': 2}, {'x': 0, 'y': 3, 'height': 1, 'width': 2}, {'x': 0, 'y': 4, 'height': 2, 'width': 1}, {'x': 2, 'y': 0, 'height': 1, 'width': 2}, {'x': 2, 'y': 1, 'height': 2, 'width': 1}, {'x': 2, 'y': 3, 'height': 1, 'width': 2}, {'x': 3, 'y': 4, 'height': 2, 'width': 1}]}",,6,0000000000000000100100001001000011110000111000001010000010110000,talls_116_100,tall_116,wide_020,tall_100,wide_013,talls_116_100,talls_116_100,block-tower-building-undo,8,258297,0.0-8.0,block_construction_build_components,build_components_build_recall_prolific_pilot_6_towers,63ed00457ed1419748312833,6111-3e3da43a-eab6-43b3-90d2-9a27133cd93b,Prolific,trial_end,1679617082495.0,255091.0,"[{'x': 2, 'y': 0, 'width': 1, 'height': 2}, {'x': 2, 'y': 2, 'width': 2, 'height': 1}, {'x': 2, 'y': 3, 'width': 2, 'height': 1}, {'x': 2, 'y': 4, 'width': 1, 'height': 2}, {'x': 4, 'y': 0, 'width': 2, 'height': 1}, {'x': 4, 'y': 1, 'width': 1, 'height': 2}, {'x': 4, 'y': 3, 'width': 2, 'height': 1}, {'x': 5, 'y': 4, 'width': 1, 'height': 2}]","[[True, True, True, True, True, True, True, True, True, True], [True, True, True, True, True, True, True, True, True, True], [False, False, False, False, False, False, True, True, True, True], [True, True, False, False, True, True, True, True, True, True], [False, False, False, False, True, True, True, True, True, True], [False, True, True, False, False, False, True, True, True, True], [True, True, True, True, True, True, True, True, True, True], [True, True, True, True, True, True, True, True, True, True], [True, True, True, True, True, True, True, True, True, True], [True, True, True, True, True, True, True, True, True, True], [True, True, True, True, True, True, True, True, True, True], [True, True, True, True, True, True, True, True, True, True]]",trial_end,perfect-reconstruction-translation,27382.0,0.0,0.0,,,,,
36,641cec496e17e9023eee6281,1679617082326.0,1679617097333.0,view,"{'blocks': [{'x': 0, 'y': 0, 'height': 2, 'width': 1}, {'x': 0, 'y': 2, 'height': 1, 'width': 2}, {'x': 0, 'y': 3, 'height': 1, 'width': 2}, {'x': 1, 'y': 4, 'height': 2, 'width': 1}, {'x': 3, 'y': 0, 'height': 2, 'width': 1}, {'x': 2, 'y': 2, 'height': 1, 'width': 2}, {'x': 2, 'y': 3, 'height': 2, 'width': 1}, {'x': 2, 'y': 5, 'height': 1, 'width': 2}]}",,3,0000000000000000011100000110000011100000111100001001000010010000,talls_102_126,tall_102,wide_024,tall_126,wide_011,talls_102_126,talls_102_126,block-tower-viewing,5,167651,0.0-5.0,block_construction_build_components,build_components_build_recall_prolific_pilot_6_towers,616f012ecf26b8c269c43152,9011-a010c09b-983b-449e-89e9-5e492df35c48,Prolific,trial_end,,,,,,,,,,,,,,
37,641cec4c6e17e9023eee6286,1679617081117.0,,build,"{'blocks': [{'x': 0, 'y': 0, 'height': 1, 'width': 2}, {'x': 0, 'y': 1, 'height': 2, 'width': 1}, {'x': 0, 'y': 3, 'height': 1, 'width': 2}, {'x': 0, 'y': 4, 'height': 2, 'width': 1}, {'x': 2, 'y': 0, 'height': 1, 'width': 2}, {'x': 3, 'y': 1, 'height': 2, 'width': 1}, {'x': 2, 'y': 3, 'height': 1, 'width': 2}, {'x': 2, 'y': 4, 'height': 2, 'width': 1}]}",,6,0000000000000000101000001010000011110000100100001001000011110000,talls_114_111,tall_114,wide_013,tall_111,wide_014,talls_114_111,talls_114_111,block-tower-building-undo,8,214389,0.0-8.0,block_construction_build_components,build_components_build_recall_prolific_pilot_6_towers,5c9d81d42d9a05001690c490,1561-a3b2cbca-0886-49de-a3a0-38fe5252eb6f,Prolific,trial_end,1679617094894.0,211126.0,"[{'x': 4, 'y': 0, 'width': 2, 'height': 1}, {'x': 6, 'y': 0, 'width': 2, 'height': 1}, {'x': 4, 'y': 1, 'width': 1, 'height': 2}, {'x': 7, 'y': 1, 'width': 1, 'height': 2}, {'x': 6, 'y': 3, 'width': 2, 'height': 1}, {'x': 4, 'y': 3, 'width': 2, 'height': 1}, {'x': 4, 'y': 4, 'width': 1, 'height': 2}, {'x': 6, 'y': 4, 'width': 1, 'height': 2}]","[[True, True, True, True, True, True, True, True, True, True], [True, True, True, True, True, True, True, True, True, True], [True, True, True, True, True, True, True, True, True, True], [True, True, True, True, True, True, True, True, True, True], [False, False, False, False, False, False, True, True, True, True], [False, True, True, False, True, True, True, True, True, True], [False, True, True, False, False, False, True, True, True, True], [False, False, False, False, True, True, True, True, True, True], [True, True, True, True, True, True, True, True, True, True], [True, True, True, True, True, True, True, True, True, True], [True, True, True, True, True, True, True, True, True, True], [True, True, True, True, True, True, True, True, True, True]]",trial_end,perfect-reconstruction-translation,13777.0,0.0,0.0,,,,,
38,641cec506e17e9023eee628f,1679617065053.0,,build,"{'blocks': [{'x': 0, 'y': 0, 'height': 1, 'width': 2}, {'x': 1, 'y': 1, 'height': 2, 'width': 1}, {'x': 0, 'y': 3, 'height': 1, 'width': 2}, {'x': 1, 'y': 4, 'height': 2, 'width': 1}, {'x': 2, 'y': 0, 'height': 1, 'width': 2}, {'x': 3, 'y': 1, 'height': 2, 'width': 1}, {'x': 3, 'y': 3, 'height': 2, 'width': 1}, {'x': 2, 'y': 5, 'height': 1, 'width': 2}]}",,6,0000000000000000011100000101000011010000010100000101000011110000,talls_097_118,tall_097,wide_006,tall_118,wide_010,talls_097_118,talls_097_118,block-tower-building-undo,8,467211,0.0-8.0,block_construction_build_components,build_components_build_recall_prolific_pilot_6_towers,57be300e7eaea600014d2e4b,9970-6be1aa71-8611-4d8e-bc74-4f05a2108d97,Prolific,trial_end,1679617105828.0,464607.0,"[{'x': 7, 'y': 0, 'width': 2, 'height': 1}, {'x': 5, 'y': 0, 'width': 2, 'height': 1}, {'x': 8, 'y': 1, 'width': 1, 'height': 2}, {'x': 8, 'y': 3, 'width': 1, 'height': 2}, {'x': 7, 'y': 5, 'width': 2, 'height': 1}, {'x': 6, 'y': 1, 'width': 1, 'height': 2}, {'x': 5, 'y': 3, 'width': 2, 'height': 1}, {'x': 6, 'y': 4, 'width': 1, 'height': 2}]","[[True, True, True, True, True, True, True, True, True, True], [True, True, True, True, True, True, True, True, True, True], [True, True, True, True, True, True, True, True, True, True], [True, True, True, True, True, True, True, True, True, True], [True, True, True, True, True, True, True, True, True, True], [False, True, True, False, True, True, True, True, True, True], [False, False, False, False, False, False, True, True, True, True], [False, True, True, True, True, False, True, True, True, True], [False, False, False, False, False, False, True, True, True, True], [True, True, True, True, True, True, True, True, True, True], [True, True, True, True, True, True, True, True, True, True], [True, True, True, True, True, True, True, True, True, True]]",trial_end,perfect-reconstruction-translation,40776.0,0.0,0.0,,,,,
39,641cec5d6e17e9023eee62a5,1679617098937.0,,build,"{'blocks': [{'x': 1, 'y': 0, 'height': 2, 'width': 1}, {'x': 0, 'y': 2, 'height': 1, 'width': 2}, {'x': 0, 'y': 3, 'height': 1, 'width': 2}, {'x': 1, 'y': 4, 'height': 2, 'width': 1}, {'x': 2, 'y': 0, 'height': 1, 'width': 2}, {'x': 3, 'y': 1, 'height': 2, 'width': 1}, {'x': 2, 'y': 3, 'height': 1, 'width': 2}, {'x': 2, 'y': 4, 'height': 2, 'width': 1}]}",,4,0000000000000000011000000110000011110000110100000101000001110000,talls_101_111,tall_101,wide_018,tall_111,wide_008,talls_101_111,talls_101_111,block-tower-building-undo,6,187439,0.0-6.0,block_construction_build_components,build_components_build_recall_prolific_pilot_6_towers,616f012ecf26b8c269c43152,9011-a010c09b-983b-449e-89e9-5e492df35c48,Prolific,trial_end,1679617114115.0,184199.0,"[{'x': 4, 'y': 0, 'width': 1, 'height': 2}, {'x': 3, 'y': 2, 'width': 2, 'height': 1}, {'x': 3, 'y': 3, 'width': 2, 'height': 1}, {'x': 5, 'y': 0, 'width': 2, 'height': 1}, {'x': 6, 'y': 1, 'width': 1, 'height': 2}, {'x': 5, 'y': 3, 'width': 2, 'height': 1}, {'x': 4, 'y': 4, 'width': 2, 'height': 1}, {'x': 4, 'y': 5, 'width': 2, 'height': 1}]","[[True, True, True, True, True, True, True, True, True, True], [True, True, True, True, True, True, True, True, True, True], [True, True, True, True, True, True, True, True, True, True], [True, True, False, False, True, True, True, True, True, True], [False, False, False, False, False, False, True, True, True, True], [False, True, True, False, False, False, True, True, True, True], [False, False, False, False, True, True, True, True, True, True], [True, True, True, True, True, True, True, True, True, True], [True, True, True, True, True, True, True, True, True, True], [True, True, True, True, True, True, True, True, True, True], [True, True, True, True, True, True, True, True, True, True], [True, True, True, True, True, True, True, True, True, True]]",trial_end,perfect-reconstruction-translation,15178.0,0.0,0.0,,,,,
40,641cec6e6e17e9023eee62bb,1679617118725.0,1679617133734.0,view,"{'blocks': [{'x': 0, 'y': 0, 'height': 2, 'width': 1}, {'x': 0, 'y': 2, 'height': 1, 'width': 2}, {'x': 0, 'y': 3, 'height': 1, 'width': 2}, {'x': 0, 'y': 4, 'height': 2, 'width': 1}, {'x': 2, 'y': 0, 'height': 1, 'width': 2}, {'x': 2, 'y': 1, 'height': 2, 'width': 1}, {'x': 2, 'y': 3, 'height': 1, 'width': 2}, {'x': 3, 'y': 4, 'height': 2, 'width': 1}]}",,5,0000000000000000100100001001000011110000111000001010000010110000,talls_116_100,tall_116,wide_020,tall_100,wide_013,talls_116_100,talls_116_100,block-tower-viewing,7,204052,0.0-7.0,block_construction_build_components,build_components_build_recall_prolific_pilot_6_towers,616f012ecf26b8c269c43152,9011-a010c09b-983b-449e-89e9-5e492df35c48,Prolific,trial_end,,,,,,,,,,,,,,
41,641cec8d6e17e9023eee62fc,1679617135339.0,,build,"{'blocks': [{'x': 0, 'y': 0, 'height': 1, 'width': 2}, {'x': 0, 'y': 1, 'height': 2, 'width': 1}, {'x': 0, 'y': 3, 'height': 1, 'width': 2}, {'x': 1, 'y': 4, 'height': 2, 'width': 1}, {'x': 2, 'y': 0, 'height': 1, 'width': 2}, {'x': 3, 'y': 1, 'height': 2, 'width': 1}, {'x': 2, 'y': 3, 'height': 1, 'width': 2}, {'x': 3, 'y': 4, 'height': 2, 'width': 1}]}",,6,0000000000000000010100000101000011110000100100001001000011110000,talls_100_097,tall_100,wide_013,tall_097,wide_006,talls_100_097,talls_100_097,block-tower-building-undo,8,235512,0.0-8.0,block_construction_build_components,build_components_build_recall_prolific_pilot_6_towers,616f012ecf26b8c269c43152,9011-a010c09b-983b-449e-89e9-5e492df35c48,Prolific,trial_end,1679617162189.0,232273.0,"[{'x': 4, 'y': 0, 'width': 2, 'height': 1}, {'x': 6, 'y': 0, 'width': 2, 'height': 1}, {'x': 4, 'y': 1, 'width': 1, 'height': 2}, {'x': 7, 'y': 1, 'width': 1, 'height': 2}, {'x': 6, 'y': 3, 'width': 2, 'height': 1}, {'x': 4, 'y': 3, 'width': 2, 'height': 1}, {'x': 5, 'y': 4, 'width': 1, 'height': 2}, {'x': 7, 'y': 4, 'width': 1, 'height': 2}]","[[True, True, True, True, True, True, True, True, True, True], [True, True, True, True, True, True, True, True, True, True], [True, True, True, True, True, True, True, True, True, True], [True, True, True, True, True, True, True, True, True, True], [False, False, False, False, True, True, True, True, True, True], [False, True, True, False, False, False, True, True, True, True], [False, True, True, False, True, True, True, True, True, True], [False, False, False, False, False, False, True, True, True, True], [True, True, True, True, True, True, True, True, True, True], [True, True, True, True, True, True, True, True, True, True], [True, True, True, True, True, True, True, True, True, True], [True, True, True, True, True, True, True, True, True, True]]",trial_end,perfect-reconstruction-translation,26850.0,0.0,0.0,,,,,
42,641cecc26e17e9023eee6359,1679617168676.0,,build,"{'blocks': [{'x': 0, 'y': 0, 'height': 1, 'width': 2}, {'x': 1, 'y': 1, 'height': 2, 'width': 1}, {'x': 0, 'y': 3, 'height': 1, 'width': 2}, {'x': 1, 'y': 4, 'height': 2, 'width': 1}, {'x': 2, 'y': 0, 'height': 1, 'width': 2}, {'x': 2, 'y': 1, 'height': 2, 'width': 1}, {'x': 2, 'y': 3, 'height': 1, 'width': 2}, {'x': 3, 'y': 4, 'height': 2, 'width': 1}]}",,1,0000000000000000010100000101000011110000011000000110000011110000,talls_097_100,tall_097,wide_008,tall_100,wide_006,talls_097_100,talls_097_100,block-tower-building-undo,3,196128,0.0-3.0,block_construction_build_components,build_components_build_recall_prolific_pilot_6_towers,5edeea354d54cb1a825aa8f9,7859-8b863752-55ec-4a1b-ae60-7d510500c955,Prolific,trial_end,1679617214442.0,193117.0,"[{'x': 7, 'y': 0, 'width': 2, 'height': 1}, {'x': 5, 'y': 0, 'width': 2, 'height': 1}, {'x': 6, 'y': 1, 'width': 2, 'height': 1}, {'x': 6, 'y': 2, 'width': 2, 'height': 1}, {'x': 7, 'y': 3, 'width': 2, 'height': 1}, {'x': 5, 'y': 3, 'width': 2, 'height': 1}, {'x': 6, 'y': 4, 'width': 1, 'height': 2}, {'x': 8, 'y': 4, 'width': 1, 'height': 2}]","[[True, True, True, True, True, True, True, True, True, True], [True, True, True, True, True, True, True, True, True, True], [True, True, True, True, True, True, True, True, True, True], [True, True, True, True, True, True, True, True, True, True], [True, True, True, True, True, True, True, True, True, True], [False, True, True, False, True, True, True, True, True, True], [False, False, False, False, False, False, True, True, True, True], [False, False, False, False, True, True, True, True, True, True], [False, True, True, False, False, False, True, True, True, True], [True, True, True, True, True, True, True, True, True, True], [True, True, True, True, True, True, True, True, True, True], [True, True, True, True, True, True, True, True, True, True]]",trial_end,perfect-reconstruction-translation,45767.0,0.0,0.0,,,,,
43,641cecd36e17e9023eee6376,1679617219280.0,1679617234316.0,view,"{'blocks': [{'x': 0, 'y': 0, 'height': 2, 'width': 1}, {'x': 0, 'y': 2, 'height': 1, 'width': 2}, {'x': 0, 'y': 3, 'height': 1, 'width': 2}, {'x': 0, 'y': 4, 'height': 2, 'width': 1}, {'x': 2, 'y': 0, 'height': 1, 'width': 2}, {'x': 2, 'y': 1, 'height': 2, 'width': 1}, {'x': 2, 'y': 3, 'height': 1, 'width': 2}, {'x': 3, 'y': 4, 'height': 2, 'width': 1}]}",,2,0000000000000000100100001001000011110000111000001010000010110000,talls_116_100,tall_116,wide_020,tall_100,wide_013,talls_116_100,talls_116_100,block-tower-viewing,4,212818,0.0-4.0,block_construction_build_components,build_components_build_recall_prolific_pilot_6_towers,5edeea354d54cb1a825aa8f9,7859-8b863752-55ec-4a1b-ae60-7d510500c955,Prolific,trial_end,,,,,,,,,,,,,,
44,641cece46e17e9023eee6394,1679617235982.0,1679617251013.0,view,"{'blocks': [{'x': 0, 'y': 0, 'height': 2, 'width': 1}, {'x': 0, 'y': 2, 'height': 1, 'width': 2}, {'x': 0, 'y': 3, 'height': 1, 'width': 2}, {'x': 1, 'y': 4, 'height': 2, 'width': 1}, {'x': 3, 'y': 0, 'height': 2, 'width': 1}, {'x': 2, 'y': 2, 'height': 1, 'width': 2}, {'x': 2, 'y': 3, 'height': 2, 'width': 1}, {'x': 2, 'y': 5, 'height': 1, 'width': 2}]}",,3,0000000000000000011100000110000011100000111100001001000010010000,talls_102_126,tall_102,wide_024,tall_126,wide_011,talls_102_126,talls_102_126,block-tower-viewing,5,229516,0.0-5.0,block_construction_build_components,build_components_build_recall_prolific_pilot_6_towers,5edeea354d54cb1a825aa8f9,7859-8b863752-55ec-4a1b-ae60-7d510500c955,Prolific,trial_end,,,,,,,,,,,,,,
45,641ced086e17e9023eee63db,1679617252689.0,,build,"{'blocks': [{'x': 1, 'y': 0, 'height': 2, 'width': 1}, {'x': 0, 'y': 2, 'height': 1, 'width': 2}, {'x': 1, 'y': 3, 'height': 2, 'width': 1}, {'x': 0, 'y': 5, 'height': 1, 'width': 2}, {'x': 3, 'y': 0, 'height': 2, 'width': 1}, {'x': 2, 'y': 2, 'height': 1, 'width': 2}, {'x': 2, 'y': 3, 'height': 1, 'width': 2}, {'x': 3, 'y': 4, 'height': 2, 'width': 1}]}",,4,0000000000000000110100000101000001110000111100000101000001010000,talls_121_101,tall_121,wide_022,tall_101,wide_018,talls_121_101,talls_121_101,block-tower-building-undo,6,265858,0.0-6.0,block_construction_build_components,build_components_build_recall_prolific_pilot_6_towers,5edeea354d54cb1a825aa8f9,7859-8b863752-55ec-4a1b-ae60-7d510500c955,Prolific,trial_end,1679617284266.0,262941.0,"[{'x': 4, 'y': 0, 'width': 1, 'height': 2}, {'x': 6, 'y': 0, 'width': 1, 'height': 2}, {'x': 3, 'y': 2, 'width': 2, 'height': 1}, {'x': 5, 'y': 2, 'width': 2, 'height': 1}, {'x': 5, 'y': 3, 'width': 2, 'height': 1}, {'x': 4, 'y': 3, 'width': 1, 'height': 2}, {'x': 3, 'y': 5, 'width': 2, 'height': 1}, {'x': 6, 'y': 4, 'width': 1, 'height': 2}]","[[True, True, True, True, True, True, True, True, True, True], [True, True, True, True, True, True, True, True, True, True], [True, True, True, True, True, True, True, True, True, True], [True, True, False, True, True, False, True, True, True, True], [False, False, False, False, False, False, True, True, True, True], [True, True, False, False, True, True, True, True, True, True], [False, False, False, False, False, False, True, True, True, True], [True, True, True, True, True, True, True, True, True, True], [True, True, True, True, True, True, True, True, True, True], [True, True, True, True, True, True, True, True, True, True], [True, True, True, True, True, True, True, True, True, True], [True, True, True, True, True, True, True, True, True, True]]",trial_end,perfect-reconstruction-translation,31579.0,0.0,0.0,,,,,
46,641ced146e17e9023eee63f2,1679617244457.0,,build,"{'blocks': [{'x': 0, 'y': 0, 'height': 1, 'width': 2}, {'x': 1, 'y': 1, 'height': 2, 'width': 1}, {'x': 1, 'y': 3, 'height': 2, 'width': 1}, {'x': 0, 'y': 5, 'height': 1, 'width': 2}, {'x': 3, 'y': 0, 'height': 2, 'width': 1}, {'x': 2, 'y': 2, 'height': 1, 'width': 2}, {'x': 3, 'y': 3, 'height': 2, 'width': 1}, {'x': 2, 'y': 5, 'height': 1, 'width': 2}]}",,1,0000000000000000111100000101000001010000011100000101000011010000,talls_118_121,tall_118,wide_010,tall_121,wide_022,talls_118_121,talls_118_121,block-tower-building-undo,3,175119,0.0-3.0,block_construction_build_components,build_components_build_recall_prolific_pilot_6_towers,5c576553fcbb880001fd0acd,3069-ea47b857-495d-406f-85bc-505027294d37,Prolific,trial_end,1679617297735.0,172087.0,"[{'x': 1, 'y': 0, 'width': 2, 'height': 1}, {'x': 2, 'y': 1, 'width': 1, 'height': 2}, {'x': 2, 'y': 3, 'width': 1, 'height': 2}, {'x': 1, 'y': 5, 'width': 2, 'height': 1}, {'x': 4, 'y': 0, 'width': 1, 'height': 2}, {'x': 3, 'y': 2, 'width': 2, 'height': 1}, {'x': 4, 'y': 3, 'width': 1, 'height': 2}, {'x': 3, 'y': 5, 'width': 2, 'height': 1}]","[[True, True, True, True, True, True, True, True, True, True], [False, True, True, True, True, False, True, True, True, True], [False, False, False, False, False, False, True, True, True, True], [True, True, False, True, True, False, True, True, True, True], [False, False, False, False, False, False, True, True, True, True], [True, True, True, True, True, True, True, True, True, True], [True, True, True, True, True, True, True, True, True, True], [True, True, True, True, True, True, True, True, True, True], [True, True, True, True, True, True, True, True, True, True], [True, True, True, True, True, True, True, True, True, True], [True, True, True, True, True, True, True, True, True, True], [True, True, True, True, True, True, True, True, True, True]]",trial_end,perfect-reconstruction-translation,53280.0,0.0,0.0,,,,,
47,641ced196e17e9023eee63f8,1679617289044.0,1679617304116.0,view,"{'blocks': [{'x': 0, 'y': 0, 'height': 1, 'width': 2}, {'x': 0, 'y': 1, 'height': 2, 'width': 1}, {'x': 0, 'y': 3, 'height': 1, 'width': 2}, {'x': 0, 'y': 4, 'height': 2, 'width': 1}, {'x': 2, 'y': 0, 'height': 1, 'width': 2}, {'x': 3, 'y': 1, 'height': 2, 'width': 1}, {'x': 2, 'y': 3, 'height': 1, 'width': 2}, {'x': 2, 'y': 4, 'height': 2, 'width': 1}]}",,5,0000000000000000101000001010000011110000100100001001000011110000,talls_114_111,tall_114,wide_013,tall_111,wide_014,talls_114_111,talls_114_111,block-tower-viewing,7,282642,0.0-7.0,block_construction_build_components,build_components_build_recall_prolific_pilot_6_towers,5edeea354d54cb1a825aa8f9,7859-8b863752-55ec-4a1b-ae60-7d510500c955,Prolific,trial_end,,,,,,,,,,,,,,
48,641ced256e17e9023eee6406,1679617302388.0,1679617317422.0,view,"{'blocks': [{'x': 1, 'y': 0, 'height': 2, 'width': 1}, {'x': 0, 'y': 2, 'height': 1, 'width': 2}, {'x': 1, 'y': 3, 'height': 2, 'width': 1}, {'x': 0, 'y': 5, 'height': 1, 'width': 2}, {'x': 3, 'y': 0, 'height': 2, 'width': 1}, {'x': 2, 'y': 2, 'height': 1, 'width': 2}, {'x': 2, 'y': 3, 'height': 1, 'width': 2}, {'x': 3, 'y': 4, 'height': 2, 'width': 1}]}",,2,0000000000000000110100000101000001110000111100000101000001010000,talls_121_101,tall_121,wide_022,tall_101,wide_018,talls_121_101,talls_121_101,block-tower-viewing,4,191767,0.0-4.0,block_construction_build_components,build_components_build_recall_prolific_pilot_6_towers,5c576553fcbb880001fd0acd,3069-ea47b857-495d-406f-85bc-505027294d37,Prolific,trial_end,,,,,,,,,,,,,,
49,641ced366e17e9023eee641c,1679617319059.0,1679617334090.0,view,"{'blocks': [{'x': 0, 'y': 0, 'height': 1, 'width': 2}, {'x': 1, 'y': 1, 'height': 2, 'width': 1}, {'x': 0, 'y': 3, 'height': 1, 'width': 2}, {'x': 1, 'y': 4, 'height': 2, 'width': 1}, {'x': 2, 'y': 0, 'height': 1, 'width': 2}, {'x': 2, 'y': 1, 'height': 2, 'width': 1}, {'x': 2, 'y': 3, 'height': 1, 'width': 2}, {'x': 3, 'y': 4, 'height': 2, 'width': 1}]}",,3,0000000000000000010100000101000011110000011000000110000011110000,talls_097_100,tall_097,wide_008,tall_100,wide_006,talls_097_100,talls_097_100,block-tower-viewing,5,208445,0.0-5.0,block_construction_build_components,build_components_build_recall_prolific_pilot_6_towers,5c576553fcbb880001fd0acd,3069-ea47b857-495d-406f-85bc-505027294d37,Prolific,trial_end,,,,,,,,,,,,,,
50,641ced576e17e9023eee6452,1679617305827.0,,build,"{'blocks': [{'x': 0, 'y': 0, 'height': 1, 'width': 2}, {'x': 1, 'y': 1, 'height': 2, 'width': 1}, {'x': 1, 'y': 3, 'height': 2, 'width': 1}, {'x': 0, 'y': 5, 'height': 1, 'width': 2}, {'x': 3, 'y': 0, 'height': 2, 'width': 1}, {'x': 2, 'y': 2, 'height': 1, 'width': 2}, {'x': 3, 'y': 3, 'height': 2, 'width': 1}, {'x': 2, 'y': 5, 'height': 1, 'width': 2}]}",,6,0000000000000000111100000101000001010000011100000101000011010000,talls_118_121,tall_118,wide_010,tall_121,wide_022,talls_118_121,talls_118_121,block-tower-building-undo,8,345345,0.0-8.0,block_construction_build_components,build_components_build_recall_prolific_pilot_6_towers,5edeea354d54cb1a825aa8f9,7859-8b863752-55ec-4a1b-ae60-7d510500c955,Prolific,trial_end,1679617363699.0,342374.0,"[{'x': 4, 'y': 0, 'width': 2, 'height': 1}, {'x': 5, 'y': 1, 'width': 1, 'height': 2}, {'x': 5, 'y': 3, 'width': 1, 'height': 2}, {'x': 4, 'y': 5, 'width': 2, 'height': 1}, {'x': 7, 'y': 0, 'width': 1, 'height': 2}, {'x': 6, 'y': 2, 'width': 2, 'height': 1}, {'x': 7, 'y': 3, 'width': 1, 'height': 2}, {'x': 6, 'y': 5, 'width': 2, 'height': 1}]","[[True, True, True, True, True, True, True, True, True, True], [True, True, True, True, True, True, True, True, True, True], [True, True, True, True, True, True, True, True, True, True], [True, True, True, True, True, True, True, True, True, True], [False, True, True, True, True, False, True, True, True, True], [False, False, False, False, False, False, True, True, True, True], [True, True, False, True, True, False, True, True, True, True], [False, False, False, False, False, False, True, True, True, True], [True, True, True, True, True, True, True, True, True, True], [True, True, True, True, True, True, True, True, True, True], [True, True, True, True, True, True, True, True, True, True], [True, True, True, True, True, True, True, True, True, True]]",trial_end,perfect-reconstruction-translation,57874.0,0.0,0.0,,,,,
51,641ced786e17e9023eee646f,1679617335721.0,,build,"{'blocks': [{'x': 0, 'y': 0, 'height': 1, 'width': 2}, {'x': 1, 'y': 1, 'height': 2, 'width': 1}, {'x': 0, 'y': 3, 'height': 1, 'width': 2}, {'x': 0, 'y': 4, 'height': 2, 'width': 1}, {'x': 2, 'y': 0, 'height': 2, 'width': 1}, {'x': 2, 'y': 2, 'height': 1, 'width': 2}, {'x': 2, 'y': 3, 'height': 2, 'width': 1}, {'x': 2, 'y': 5, 'height': 1, 'width': 2}]}",,4,0000000000000000101100001010000011100000011100000110000011100000,talls_111_127,tall_111,wide_011,tall_127,wide_015,talls_111_127,talls_111_127,block-tower-building-undo,6,275153,0.0-6.0,block_construction_build_components,build_components_build_recall_prolific_pilot_6_towers,5c576553fcbb880001fd0acd,3069-ea47b857-495d-406f-85bc-505027294d37,Prolific,trial_end,1679617397750.0,272102.0,"[{'x': 3, 'y': 0, 'width': 2, 'height': 1}, {'x': 5, 'y': 0, 'width': 1, 'height': 2}, {'x': 5, 'y': 2, 'width': 2, 'height': 1}, {'x': 5, 'y': 3, 'width': 1, 'height': 2}, {'x': 5, 'y': 5, 'width': 2, 'height': 1}, {'x': 4, 'y': 1, 'width': 1, 'height': 2}, {'x': 3, 'y': 3, 'width': 2, 'height': 1}, {'x': 3, 'y': 4, 'width': 1, 'height': 2}]","[[True, True, True, True, True, True, True, True, True, True], [True, True, True, True, True, True, True, True, True, True], [True, True, True, True, True, True, True, True, True, True], [False, True, True, False, False, False, True, True, True, True], [False, False, False, False, True, True, True, True, True, True], [False, False, False, False, False, False, True, True, True, True], [True, True, False, True, True, False, True, True, True, True], [True, True, True, True, True, True, True, True, True, True], [True, True, True, True, True, True, True, True, True, True], [True, True, True, True, True, True, True, True, True, True], [True, True, True, True, True, True, True, True, True, True], [True, True, True, True, True, True, True, True, True, True]]",trial_end,perfect-reconstruction-translation,62032.0,0.0,1.0,,,,,
52,641ced896e17e9023eee647c,1679617402461.0,1679617417501.0,view,"{'blocks': [{'x': 0, 'y': 0, 'height': 1, 'width': 2}, {'x': 0, 'y': 1, 'height': 2, 'width': 1}, {'x': 0, 'y': 3, 'height': 1, 'width': 2}, {'x': 0, 'y': 4, 'height': 2, 'width': 1}, {'x': 2, 'y': 0, 'height': 1, 'width': 2}, {'x': 3, 'y': 1, 'height': 2, 'width': 1}, {'x': 2, 'y': 3, 'height': 1, 'width': 2}, {'x': 2, 'y': 4, 'height': 2, 'width': 1}]}",,5,0000000000000000101000001010000011110000100100001001000011110000,talls_114_111,tall_114,wide_013,tall_111,wide_014,talls_114_111,talls_114_111,block-tower-viewing,7,291884,0.0-7.0,block_construction_build_components,build_components_build_recall_prolific_pilot_6_towers,5c576553fcbb880001fd0acd,3069-ea47b857-495d-406f-85bc-505027294d37,Prolific,trial_end,,,,,,,,,,,,,,
53,641ceda86e17e9023eee6492,1679617419177.0,,build,"{'blocks': [{'x': 0, 'y': 0, 'height': 2, 'width': 1}, {'x': 0, 'y': 2, 'height': 1, 'width': 2}, {'x': 0, 'y': 3, 'height': 1, 'width': 2}, {'x': 1, 'y': 4, 'height': 2, 'width': 1}, {'x': 3, 'y': 0, 'height': 2, 'width': 1}, {'x': 2, 'y': 2, 'height': 1, 'width': 2}, {'x': 2, 'y': 3, 'height': 2, 'width': 1}, {'x': 2, 'y': 5, 'height': 1, 'width': 2}]}",,6,0000000000000000011100000110000011100000111100001001000010010000,talls_102_126,tall_102,wide_024,tall_126,wide_011,talls_102_126,talls_102_126,block-tower-building-undo,8,322783,0.0-8.0,block_construction_build_components,build_components_build_recall_prolific_pilot_6_towers,5c576553fcbb880001fd0acd,3069-ea47b857-495d-406f-85bc-505027294d37,Prolific,trial_end,1679617445319.0,319671.0,"[{'x': 2, 'y': 0, 'width': 1, 'height': 2}, {'x': 5, 'y': 0, 'width': 1, 'height': 2}, {'x': 2, 'y': 2, 'width': 2, 'height': 1}, {'x': 4, 'y': 2, 'width': 2, 'height': 1}, {'x': 2, 'y': 3, 'width': 2, 'height': 1}, {'x': 4, 'y': 3, 'width': 1, 'height': 2}, {'x': 3, 'y': 4, 'width': 1, 'height': 2}, {'x': 4, 'y': 5, 'width': 2, 'height': 1}]","[[True, True, True, True, True, True, True, True, True, True], [True, True, True, True, True, True, True, True, True, True], [False, False, False, False, True, True, True, True, True, True], [True, True, False, False, False, False, True, True, True, True], [True, True, False, False, False, False, True, True, True, True], [False, False, False, True, True, False, True, True, True, True], [True, True, True, True, True, True, True, True, True, True], [True, True, True, True, True, True, True, True, True, True], [True, True, True, True, True, True, True, True, True, True], [True, True, True, True, True, True, True, True, True, True], [True, True, True, True, True, True, True, True, True, True], [True, True, True, True, True, True, True, True, True, True]]",trial_end,perfect-reconstruction-translation,26143.0,0.0,0.0,,,,,
54,641cf2b76e17e9023eee657e,1679618727818.0,1679618742827.0,view,"{'blocks': [{'x': 1, 'y': 0, 'height': 2, 'width': 1}, {'x': 0, 'y': 2, 'height': 1, 'width': 2}, {'x': 0, 'y': 3, 'height': 1, 'width': 2}, {'x': 1, 'y': 4, 'height': 2, 'width': 1}, {'x': 2, 'y': 0, 'height': 1, 'width': 2}, {'x': 3, 'y': 1, 'height': 2, 'width': 1}, {'x': 2, 'y': 3, 'height': 1, 'width': 2}, {'x': 2, 'y': 4, 'height': 2, 'width': 1}]}",,1,0000000000000000011000000110000011110000110100000101000001110000,talls_101_111,tall_101,wide_018,tall_111,wide_008,talls_101_111,talls_101_111,block-tower-viewing,3,63648,0.0-3.0,block_construction_build_components,build_components_build_recall_prolific_pilot_6_towers,62d2c9d825a0449c13aa42cc,5576-6f509a15-77be-4582-b905-9418c593fac3,Prolific,trial_end,,,,,,,,,,,,,,
55,641cf2ce6e17e9023eee6588,1679618744447.0,,build,"{'blocks': [{'x': 0, 'y': 0, 'height': 1, 'width': 2}, {'x': 1, 'y': 1, 'height': 2, 'width': 1}, {'x': 0, 'y': 3, 'height': 1, 'width': 2}, {'x': 1, 'y': 4, 'height': 2, 'width': 1}, {'x': 2, 'y': 0, 'height': 1, 'width': 2}, {'x': 2, 'y': 1, 'height': 2, 'width': 1}, {'x': 2, 'y': 3, 'height': 1, 'width': 2}, {'x': 3, 'y': 4, 'height': 2, 'width': 1}]}",,2,0000000000000000010100000101000011110000011000000110000011110000,talls_097_100,tall_097,wide_008,tall_100,wide_006,talls_097_100,talls_097_100,block-tower-building-undo,4,86790,0.0-4.0,block_construction_build_components,build_components_build_recall_prolific_pilot_6_towers,62d2c9d825a0449c13aa42cc,5576-6f509a15-77be-4582-b905-9418c593fac3,Prolific,trial_end,1679618762951.0,83408.0,"[{'x': 4, 'y': 0, 'width': 2, 'height': 1}, {'x': 6, 'y': 0, 'width': 2, 'height': 1}, {'x': 5, 'y': 1, 'width': 1, 'height': 2}, {'x': 6, 'y': 1, 'width': 1, 'height': 2}, {'x': 4, 'y': 3, 'width': 2, 'height': 1}, {'x': 6, 'y': 3, 'width': 2, 'height': 1}, {'x': 5, 'y': 4, 'width': 1, 'height': 2}, {'x': 7, 'y': 4, 'width': 1, 'height': 2}]","[[True, True, True, True, True, True, True, True, True, True], [True, True, True, True, True, True, True, True, True, True], [True, True, True, True, True, True, True, True, True, True], [True, True, True, True, True, True, True, True, True, True], [False, True, True, False, True, True, True, True, True, True], [False, False, False, False, False, False, True, True, True, True], [False, False, False, False, True, True, True, True, True, True], [False, True, True, False, False, False, True, True, True, True], [True, True, True, True, True, True, True, True, True, True], [True, True, True, True, True, True, True, True, True, True], [True, True, True, True, True, True, True, True, True, True], [True, True, True, True, True, True, True, True, True, True]]",trial_end,perfect-reconstruction-translation,18504.0,0.0,0.0,,,,,
56,641cf2ea6e17e9023eee6592,1679618767586.0,,build,"{'blocks': [{'x': 0, 'y': 0, 'height': 1, 'width': 2}, {'x': 1, 'y': 1, 'height': 2, 'width': 1}, {'x': 1, 'y': 3, 'height': 2, 'width': 1}, {'x': 0, 'y': 5, 'height': 1, 'width': 2}, {'x': 2, 'y': 0, 'height': 1, 'width': 2}, {'x': 2, 'y': 1, 'height': 2, 'width': 1}, {'x': 2, 'y': 3, 'height': 1, 'width': 2}, {'x': 2, 'y': 4, 'height': 2, 'width': 1}]}",,3,0000000000000000111000000110000001110000011000000110000011110000,talls_118_114,tall_118,wide_008,tall_114,wide_019,talls_118_114,talls_118_114,block-tower-building-undo,5,114283,0.0-5.0,block_construction_build_components,build_components_build_recall_prolific_pilot_6_towers,62d2c9d825a0449c13aa42cc,5576-6f509a15-77be-4582-b905-9418c593fac3,Prolific,trial_end,1679618790444.0,110901.0,"[{'x': 4, 'y': 0, 'width': 2, 'height': 1}, {'x': 6, 'y': 0, 'width': 2, 'height': 1}, {'x': 5, 'y': 1, 'width': 1, 'height': 2}, {'x': 6, 'y': 1, 'width': 1, 'height': 2}, {'x': 5, 'y': 3, 'width': 1, 'height': 2}, {'x': 6, 'y': 3, 'width': 2, 'height': 1}, {'x': 6, 'y': 4, 'width': 1, 'height': 2}, {'x': 4, 'y': 5, 'width': 2, 'height': 1}]","[[True, True, True, True, True, True, True, True, True, True], [True, True, True, True, True, True, True, True, True, True], [True, True, True, True, True, True, True, True, True, True], [True, True, True, True, True, True, True, True, True, True], [False, True, True, True, True, False, True, True, True, True], [False, False, False, False, False, False, True, True, True, True], [False, False, False, False, False, False, True, True, True, True], [False, True, True, False, True, True, True, True, True, True], [True, True, True, True, True, True, True, True, True, True], [True, True, True, True, True, True, True, True, True, True], [True, True, True, True, True, True, True, True, True, True], [True, True, True, True, True, True, True, True, True, True]]",trial_end,perfect-reconstruction-translation,22858.0,0.0,0.0,,,,,
57,641cf2fb6e17e9023eee6593,1679618795094.0,1679618810114.0,view,"{'blocks': [{'x': 0, 'y': 0, 'height': 1, 'width': 2}, {'x': 1, 'y': 1, 'height': 2, 'width': 1}, {'x': 0, 'y': 3, 'height': 1, 'width': 2}, {'x': 1, 'y': 4, 'height': 2, 'width': 1}, {'x': 2, 'y': 0, 'height': 1, 'width': 2}, {'x': 3, 'y': 1, 'height': 2, 'width': 1}, {'x': 3, 'y': 3, 'height': 2, 'width': 1}, {'x': 2, 'y': 5, 'height': 1, 'width': 2}]}",,4,0000000000000000011100000101000011010000010100000101000011110000,talls_097_118,tall_097,wide_006,tall_118,wide_010,talls_097_118,talls_097_118,block-tower-viewing,6,130935,0.0-6.0,block_construction_build_components,build_components_build_recall_prolific_pilot_6_towers,62d2c9d825a0449c13aa42cc,5576-6f509a15-77be-4582-b905-9418c593fac3,Prolific,trial_end,,,,,,,,,,,,,,
58,641cf3326e17e9023eee65a5,1679618811770.0,,build,"{'blocks': [{'x': 0, 'y': 0, 'height': 1, 'width': 2}, {'x': 0, 'y': 1, 'height': 2, 'width': 1}, {'x': 0, 'y': 3, 'height': 1, 'width': 2}, {'x': 1, 'y': 4, 'height': 2, 'width': 1}, {'x': 2, 'y': 0, 'height': 1, 'width': 2}, {'x': 3, 'y': 1, 'height': 2, 'width': 1}, {'x': 2, 'y': 3, 'height': 1, 'width': 2}, {'x': 3, 'y': 4, 'height': 2, 'width': 1}]}",,5,0000000000000000010100000101000011110000100100001001000011110000,talls_100_097,tall_100,wide_013,tall_097,wide_006,talls_100_097,talls_100_097,block-tower-building-undo,7,186220,0.0-7.0,block_construction_build_components,build_components_build_recall_prolific_pilot_6_towers,62d2c9d825a0449c13aa42cc,5576-6f509a15-77be-4582-b905-9418c593fac3,Prolific,trial_end,1679618862319.0,182776.0,"[{'x': 4, 'y': 0, 'width': 2, 'height': 1}, {'x': 6, 'y': 0, 'width': 2, 'height': 1}, {'x': 4, 'y': 1, 'width': 1, 'height': 2}, {'x': 7, 'y': 1, 'width': 1, 'height': 2}, {'x': 6, 'y': 3, 'width': 2, 'height': 1}, {'x': 4, 'y': 3, 'width': 2, 'height': 1}, {'x': 5, 'y': 4, 'width': 1, 'height': 2}, {'x': 7, 'y': 4, 'width': 1, 'height': 2}]","[[True, True, True, True, True, True, True, True, True, True], [True, True, True, True, True, True, True, True, True, True], [True, True, True, True, True, True, True, True, True, True], [True, True, True, True, True, True, True, True, True, True], [False, False, False, False, True, True, True, True, True, True], [False, True, True, False, False, False, True, True, True, True], [False, True, True, False, True, True, True, True, True, True], [False, False, False, False, False, False, True, True, True, True], [True, True, True, True, True, True, True, True, True, True], [True, True, True, True, True, True, True, True, True, True], [True, True, True, True, True, True, True, True, True, True], [True, True, True, True, True, True, True, True, True, True]]",trial_end,perfect-reconstruction-translation,50550.0,0.0,2.0,,,,,
59,641cf3436e17e9023eee65a6,1679618867026.0,1679618882048.0,view,"{'blocks': [{'x': 0, 'y': 0, 'height': 1, 'width': 2}, {'x': 1, 'y': 1, 'height': 2, 'width': 1}, {'x': 0, 'y': 3, 'height': 1, 'width': 2}, {'x': 0, 'y': 4, 'height': 2, 'width': 1}, {'x': 2, 'y': 0, 'height': 2, 'width': 1}, {'x': 2, 'y': 2, 'height': 1, 'width': 2}, {'x': 2, 'y': 3, 'height': 2, 'width': 1}, {'x': 2, 'y': 5, 'height': 1, 'width': 2}]}",,6,0000000000000000101100001010000011100000011100000110000011100000,talls_111_127,tall_111,wide_011,tall_127,wide_015,talls_111_127,talls_111_127,block-tower-viewing,8,202917,0.0-8.0,block_construction_build_components,build_components_build_recall_prolific_pilot_6_towers,62d2c9d825a0449c13aa42cc,5576-6f509a15-77be-4582-b905-9418c593fac3,Prolific,trial_end,,,,,,,,,,,,,,
60,641cfa786e17e9023eee6604,1679620677764.0,,build,"{'blocks': [{'x': 0, 'y': 0, 'height': 1, 'width': 2}, {'x': 0, 'y': 1, 'height': 2, 'width': 1}, {'x': 0, 'y': 3, 'height': 1, 'width': 2}, {'x': 1, 'y': 4, 'height': 2, 'width': 1}, {'x': 2, 'y': 0, 'height': 1, 'width': 2}, {'x': 3, 'y': 1, 'height': 2, 'width': 1}, {'x': 2, 'y': 3, 'height': 1, 'width': 2}, {'x': 3, 'y': 4, 'height': 2, 'width': 1}]}",,1,0000000000000000010100000101000011110000100100001001000011110000,talls_100_097,tall_100,wide_013,tall_097,wide_006,talls_100_097,talls_100_097,block-tower-building-undo,3,92301,0.0-3.0,block_construction_build_components,build_components_build_recall_prolific_pilot_6_towers,55c09e19fdf99b16c1fa925d,6666-5da66759-ad10-4636-a3f3-d1839dfd743a,Prolific,trial_end,1679620724191.0,88460.0,"[{'x': 3, 'y': 0, 'width': 2, 'height': 1}, {'x': 5, 'y': 0, 'width': 2, 'height': 1}, {'x': 3, 'y': 1, 'width': 1, 'height': 2}, {'x': 3, 'y': 3, 'width': 2, 'height': 1}, {'x': 6, 'y': 1, 'width': 1, 'height': 2}, {'x': 5, 'y': 3, 'width': 2, 'height': 1}, {'x': 4, 'y': 4, 'width': 1, 'height': 2}, {'x': 6, 'y': 4, 'width': 1, 'height': 2}]","[[True, True, True, True, True, True, True, True, True, True], [True, True, True, True, True, True, True, True, True, True], [True, True, True, True, True, True, True, True, True, True], [False, False, False, False, True, True, True, True, True, True], [False, True, True, False, False, False, True, True, True, True], [False, True, True, False, True, True, True, True, True, True], [False, False, False, False, False, False, True, True, True, True], [True, True, True, True, True, True, True, True, True, True], [True, True, True, True, True, True, True, True, True, True], [True, True, True, True, True, True, True, True, True, True], [True, True, True, True, True, True, True, True, True, True], [True, True, True, True, True, True, True, True, True, True]]",trial_end,perfect-reconstruction-translation,46428.0,0.0,1.0,,,,,
61,641cfa8b6e17e9023eee6605,1679620729701.0,1679620745700.0,view,"{'blocks': [{'x': 0, 'y': 0, 'height': 1, 'width': 2}, {'x': 0, 'y': 1, 'height': 2, 'width': 1}, {'x': 0, 'y': 3, 'height': 1, 'width': 2}, {'x': 0, 'y': 4, 'height': 2, 'width': 1}, {'x': 2, 'y': 0, 'height': 1, 'width': 2}, {'x': 3, 'y': 1, 'height': 2, 'width': 1}, {'x': 2, 'y': 3, 'height': 1, 'width': 2}, {'x': 2, 'y': 4, 'height': 2, 'width': 1}]}",,2,0000000000000000101000001010000011110000100100001001000011110000,talls_114_111,tall_114,wide_013,tall_111,wide_014,talls_114_111,talls_114_111,block-tower-viewing,4,111310,0.0-4.0,block_construction_build_components,build_components_build_recall_prolific_pilot_6_towers,55c09e19fdf99b16c1fa925d,6666-5da66759-ad10-4636-a3f3-d1839dfd743a,Prolific,trial_end,,,,,,,,,,,,,,
62,641cfabd6e17e9023eee6615,1679620748699.0,,build,"{'blocks': [{'x': 0, 'y': 0, 'height': 2, 'width': 1}, {'x': 0, 'y': 2, 'height': 1, 'width': 2}, {'x': 0, 'y': 3, 'height': 1, 'width': 2}, {'x': 1, 'y': 4, 'height': 2, 'width': 1}, {'x': 3, 'y': 0, 'height': 2, 'width': 1}, {'x': 2, 'y': 2, 'height': 1, 'width': 2}, {'x': 2, 'y': 3, 'height': 2, 'width': 1}, {'x': 2, 'y': 5, 'height': 1, 'width': 2}]}",,3,0000000000000000011100000110000011100000111100001001000010010000,talls_102_126,tall_102,wide_024,tall_126,wide_011,talls_102_126,talls_102_126,block-tower-building-undo,5,161309,0.0-5.0,block_construction_build_components,build_components_build_recall_prolific_pilot_6_towers,55c09e19fdf99b16c1fa925d,6666-5da66759-ad10-4636-a3f3-d1839dfd743a,Prolific,trial_end,1679620792000.0,156269.0,"[{'x': 3, 'y': 0, 'width': 1, 'height': 2}, {'x': 6, 'y': 0, 'width': 1, 'height': 2}, {'x': 3, 'y': 2, 'width': 2, 'height': 1}, {'x': 5, 'y': 2, 'width': 2, 'height': 1}, {'x': 3, 'y': 3, 'width': 2, 'height': 1}, {'x': 5, 'y': 3, 'width': 1, 'height': 2}, {'x': 4, 'y': 4, 'width': 1, 'height': 2}, {'x': 5, 'y': 5, 'width': 2, 'height': 1}]","[[True, True, True, True, True, True, True, True, True, True], [True, True, True, True, True, True, True, True, True, True], [True, True, True, True, True, True, True, True, True, True], [False, False, False, False, True, True, True, True, True, True], [True, True, False, False, False, False, True, True, True, True], [True, True, False, False, False, False, True, True, True, True], [False, False, False, True, True, False, True, True, True, True], [True, True, True, True, True, True, True, True, True, True], [True, True, True, True, True, True, True, True, True, True], [True, True, True, True, True, True, True, True, True, True], [True, True, True, True, True, True, True, True, True, True], [True, True, True, True, True, True, True, True, True, True]]",trial_end,perfect-reconstruction-translation,43302.0,0.0,0.0,,,,,
63,641cfad06e17e9023eee6616,1679620798715.0,1679620814725.0,view,"{'blocks': [{'x': 1, 'y': 0, 'height': 2, 'width': 1}, {'x': 0, 'y': 2, 'height': 1, 'width': 2}, {'x': 0, 'y': 3, 'height': 1, 'width': 2}, {'x': 1, 'y': 4, 'height': 2, 'width': 1}, {'x': 2, 'y': 0, 'height': 1, 'width': 2}, {'x': 3, 'y': 1, 'height': 2, 'width': 1}, {'x': 2, 'y': 3, 'height': 1, 'width': 2}, {'x': 2, 'y': 4, 'height': 2, 'width': 1}]}",,4,0000000000000000011000000110000011110000110100000101000001110000,talls_101_111,tall_101,wide_018,tall_111,wide_008,talls_101_111,talls_101_111,block-tower-viewing,6,180326,0.0-6.0,block_construction_build_components,build_components_build_recall_prolific_pilot_6_towers,55c09e19fdf99b16c1fa925d,6666-5da66759-ad10-4636-a3f3-d1839dfd743a,Prolific,trial_end,,,,,,,,,,,,,,
64,641cfae36e17e9023eee6617,1679620817760.0,1679620833721.0,view,"{'blocks': [{'x': 1, 'y': 0, 'height': 2, 'width': 1}, {'x': 0, 'y': 2, 'height': 1, 'width': 2}, {'x': 1, 'y': 3, 'height': 2, 'width': 1}, {'x': 0, 'y': 5, 'height': 1, 'width': 2}, {'x': 3, 'y': 0, 'height': 2, 'width': 1}, {'x': 2, 'y': 2, 'height': 1, 'width': 2}, {'x': 2, 'y': 3, 'height': 1, 'width': 2}, {'x': 3, 'y': 4, 'height': 2, 'width': 1}]}",,5,0000000000000000110100000101000001110000111100000101000001010000,talls_121_101,tall_121,wide_022,tall_101,wide_018,talls_121_101,talls_121_101,block-tower-viewing,7,199315,0.0-7.0,block_construction_build_components,build_components_build_recall_prolific_pilot_6_towers,55c09e19fdf99b16c1fa925d,6666-5da66759-ad10-4636-a3f3-d1839dfd743a,Prolific,trial_end,,,,,,,,,,,,,,
65,641cfaff6e17e9023eee6621,1679620836717.0,,build,"{'blocks': [{'x': 0, 'y': 0, 'height': 1, 'width': 2}, {'x': 1, 'y': 1, 'height': 2, 'width': 1}, {'x': 0, 'y': 3, 'height': 1, 'width': 2}, {'x': 1, 'y': 4, 'height': 2, 'width': 1}, {'x': 2, 'y': 0, 'height': 1, 'width': 2}, {'x': 3, 'y': 1, 'height': 2, 'width': 1}, {'x': 3, 'y': 3, 'height': 2, 'width': 1}, {'x': 2, 'y': 5, 'height': 1, 'width': 2}]}",,6,0000000000000000011100000101000011010000010100000101000011110000,talls_097_118,tall_097,wide_006,tall_118,wide_010,talls_097_118,talls_097_118,block-tower-building-undo,8,227339,0.0-8.0,block_construction_build_components,build_components_build_recall_prolific_pilot_6_towers,55c09e19fdf99b16c1fa925d,6666-5da66759-ad10-4636-a3f3-d1839dfd743a,Prolific,trial_end,1679620858617.0,222886.0,"[{'x': 4, 'y': 0, 'width': 2, 'height': 1}, {'x': 6, 'y': 0, 'width': 2, 'height': 1}, {'x': 5, 'y': 1, 'width': 1, 'height': 2}, {'x': 7, 'y': 1, 'width': 1, 'height': 2}, {'x': 7, 'y': 3, 'width': 1, 'height': 2}, {'x': 6, 'y': 5, 'width': 2, 'height': 1}, {'x': 4, 'y': 3, 'width': 2, 'height': 1}, {'x': 5, 'y': 4, 'width': 1, 'height': 2}]","[[True, True, True, True, True, True, True, True, True, True], [True, True, True, True, True, True, True, True, True, True], [True, True, True, True, True, True, True, True, True, True], [True, True, True, True, True, True, True, True, True, True], [False, True, True, False, True, True, True, True, True, True], [False, False, False, False, False, False, True, True, True, True], [False, True, True, True, True, False, True, True, True, True], [False, False, False, False, False, False, True, True, True, True], [True, True, True, True, True, True, True, True, True, True], [True, True, True, True, True, True, True, True, True, True], [True, True, True, True, True, True, True, True, True, True], [True, True, True, True, True, True, True, True, True, True]]",trial_end,perfect-reconstruction-translation,21901.0,0.0,0.0,,,,,
